accx,accy,accz
0.85095,-0.02615,0.5153
0.840425,-0.025775,0.539725
0.839,-0.024975,0.5386
0.8371,-0.020675,0.533375
0.843975,-0.0211,0.535725
0.85055,-0.024575,0.5282
0.8452667,-0.0273,0.5333
0.83652,-0.02504,0.53908
0.837175,-0.022625,0.534125
0.84475,-0.025425,0.534625
0.8431,-0.02315,0.5327
0.8411333,-0.0203667,0.5333667
0.84392,-0.02494,0.5372
0.84345,-0.0295,0.536125
0.842175,-0.027,0.53345
0.83875,-0.020225,0.52655
0.8386333,-0.0153,0.5246667
0.84326,-0.02144,0.53686
0.846225,-0.024925,0.544275
0.8449,-0.028,0.53425
0.83875,-0.027875,0.533625
0.8367667,-0.0232,0.5348667
0.8384333,-0.0209333,0.5364
0.8413167,-0.0209167,0.5332167
0.847875,-0.027475,0.53395
0.845875,-0.029325,0.5358
0.8449,-0.0304667,0.5354333
0.8407,-0.0263667,0.5317
0.8389667,-0.0233833,0.53225
0.8362,-0.0219667,0.5422
0.83985,-0.02265,0.536425
0.844575,-0.02505,0.53015
0.8440333,-0.0293667,0.5367333
0.8449667,-0.0290333,0.5386
0.8407,-0.0229833,0.53215
0.84175,-0.020775,0.5337
0.84485,-0.02405,0.5335
0.8438,-0.02315,0.532725
0.842475,-0.02535,0.531775
0.844,-0.027625,0.534175
0.839825,-0.026875,0.5377
0.8409,-0.024475,0.53325
0.84285,-0.022775,0.533325
0.843475,-0.024475,0.5337
0.84175,-0.02395,0.5366
0.83925,-0.02365,0.534375
0.841825,-0.02475,0.533525
0.844275,-0.0256,0.5348
0.842725,-0.025,0.53745
0.841325,-0.02475,0.5332
0.83905,-0.024675,0.53195
0.8421,-0.022825,0.5332
0.844625,-0.024675,0.534925
0.84245,-0.02475,0.536025
0.8403,-0.025275,0.5329
0.8473,-0.02925,0.5338
0.8476333,-0.0304333,0.5331
0.8414,-0.02304,0.52972
0.841925,-0.01905,0.526075
0.8382,-0.018675,0.535875
0.838925,-0.023025,0.544825
0.8417,-0.0289,0.5443
0.84106,-0.02914,0.53784
0.84285,-0.02315,0.52665
0.84125,-0.01805,0.53085
0.842125,-0.0204,0.5325
0.8414667,-0.0242,0.5359667
0.84274,-0.02732,0.53748
0.843825,-0.02995,0.5311
0.843,-0.028425,0.536375
0.84175,-0.02535,0.533075
0.8399,-0.0231,0.5340667
0.8379,-0.02,0.53408
0.8423333,-0.0239667,0.533
0.84466,-0.0266,0.53608
0.84585,-0.02595,0.533025
0.8404,-0.0256333,0.5337667
0.83848,-0.0238,0.53802
0.843725,-0.023275,0.52875
0.84505,-0.021575,0.5333
0.8425333,-0.0218333,0.5377
0.840175,-0.02195,0.537875
0.8424,-0.02478,0.5314
0.84365,-0.0272,0.531
0.8380333,-0.0228,0.5391667
0.840775,-0.022825,0.536075
0.843025,-0.024325,0.53515
0.84365,-0.024275,0.5345
0.840725,-0.022925,0.536575
0.84065,-0.02255,0.534425
0.8391,-0.02315,0.533375
0.84445,-0.027,0.535275
0.8436667,-0.0266333,0.5348333
0.8413,-0.02348,0.53526
0.8371,-0.02045,0.534325
0.844,-0.025625,0.53345
0.8454,-0.024925,0.534875
0.845475,-0.023525,0.5342
0.8432,-0.02375,0.534725
0.84235,-0.024975,0.5304
0.83905,-0.02085,0.53015
0.8385,-0.0201,0.533525
0.8409667,-0.0210667,0.539
0.8427,-0.02626,0.5425
0.84295,-0.02835,0.537675
0.839675,-0.0244,0.532525
0.8386,-0.0207333,0.5314333
0.84456,-0.02006,0.5305
0.843875,-0.0236,0.53035
0.843225,-0.025975,0.535625
0.84395,-0.027675,0.53765
0.84235,-0.027725,0.53395
0.8415333,-0.0260333,0.5316
0.84196,-0.02298,0.53124
0.84145,-0.020025,0.535425
0.8435,-0.025175,0.5355
0.8403,-0.0275,0.5356
0.84058,-0.02434,0.53842
0.842875,-0.023625,0.534
0.843725,-0.023025,0.532
0.841425,-0.022425,0.532925
0.8414667,-0.0218667,0.5321667
0.84518,-0.02342,0.53064
0.8451,-0.024625,0.53305
0.84345,-0.024975,0.535775
0.8435,-0.0243,0.53205
0.8399,-0.0247,0.53315
0.8421,-0.02425,0.53335
0.84225,-0.022975,0.53405
0.841625,-0.02365,0.53845
0.841725,-0.023025,0.5353
0.8427333,-0.0253333,0.5342
0.84436,-0.02464,0.53378
0.842225,-0.02525,0.532825
0.841375,-0.023275,0.5323
0.8415,-0.023975,0.533925
0.8418,-0.0232,0.5356667
0.8446333,-0.0228667,0.5318333
0.84255,-0.0234,0.5326833
0.83915,-0.023025,0.534375
0.84505,-0.028425,0.5318
0.8523333,-0.0314333,0.5302
0.8467667,-0.0258,0.5315
0.8413667,-0.0200333,0.5283333
0.833575,-0.0159,0.536425
0.8372333,-0.0214,0.5433333
0.844225,-0.028725,0.541225
0.8448667,-0.0307,0.5398
0.8449667,-0.029,0.5311667
0.8388833,-0.0207167,0.5332
0.84265,-0.0201,0.52925
0.8464,-0.02285,0.530975
0.8472333,-0.0261333,0.5335
0.84632,-0.02836,0.5312
0.8467,-0.0262,0.5279
0.843575,-0.0237,0.534225
0.841125,-0.0228,0.535875
0.8378,-0.0211,0.5297333
0.8380333,-0.0225333,0.5324
0.8407167,-0.0261333,0.5399
0.84595,-0.025125,0.53485
0.8462,-0.025975,0.532175
0.83965,-0.022525,0.5351
0.8415,-0.0223,0.531075
0.84675,-0.0235,0.523575
0.845,-0.02675,0.531375
0.844725,-0.026325,0.53395
0.840775,-0.023275,0.53455
0.84235,-0.0245,0.53325
0.8439,-0.0255667,0.5297
0.8424143,-0.0252,0.5380143
0.8432667,-0.0218,0.5312
0.84346,-0.02372,0.52796
0.844425,-0.023025,0.5324
0.842375,-0.021825,0.534975
0.842025,-0.0228,0.53465
0.843625,-0.0264,0.5319
0.842975,-0.02475,0.529775
0.843625,-0.02335,0.53
0.843525,-0.023975,0.531625
0.844925,-0.0255,0.536425
0.848825,-0.028775,0.5341
0.8428,-0.025475,0.52605
0.8410667,-0.0228667,0.5270667
0.83188,-0.0188,0.53028
0.85035,-0.021875,0.542975
0.835575,-0.026525,0.54475
0.843925,-0.03025,0.541375
0.842175,-0.024675,0.532125
0.840175,-0.02335,0.53315
0.8392,-0.023575,0.53735
0.8393667,-0.0219,0.5347
0.8418,-0.0237,0.53465
0.8462,-0.02912,0.5366
0.8442,-0.0302,0.5364
0.8377,-0.025925,0.537175
0.8349333,-0.0218,0.5350333
0.8374,-0.021425,0.5372
0.84036,-0.0269,0.54222
0.836725,-0.026575,0.548125
0.8381333,-0.0260333,0.5379333
0.843,-0.02565,0.531
0.84,-0.0253333,0.5383333
0.839,-0.0251,0.5436
0.8388833,-0.0262,0.53665
0.8419,-0.02725,0.5329
0.841125,-0.024375,0.539075
0.84015,-0.0247,0.53775
0.8397,-0.023975,0.53645
0.83942,-0.02774,0.53726
0.842525,-0.027975,0.536375
0.839525,-0.0242,0.53835
0.8391667,-0.0237667,0.5427667
0.837525,-0.024275,0.5409
0.83654,-0.0229,0.53648
0.8421,-0.0248,0.53625
0.84425,-0.02645,0.537725
0.8413,-0.0287333,0.5416
0.8402333,-0.0284333,0.5418
0.84065,-0.0280833,0.5347833
0.839675,-0.020775,0.531625
0.841675,-0.02075,0.533325
0.8374,-0.021475,0.543175
0.8376,-0.0257,0.54575
0.8382667,-0.0302,0.5443
0.8388857,-0.0278571,0.541
0.837525,-0.023025,0.537675
0.838375,-0.022125,0.54055
0.84395,-0.02385,0.53485
0.8386333,-0.0243333,0.5348667
0.8394714,-0.0272429,0.5405571
0.83965,-0.028975,0.54185
0.83985,-0.0308,0.53645
0.8372,-0.0257,0.5395
0.8370667,-0.0235,0.5383667
0.8404,-0.0233,0.5368714
0.8391,-0.0293667,0.5396667
0.8376,-0.02832,0.54742
0.8362,-0.0245,0.539375
0.83995,-0.0227,0.5394
0.84095,-0.02395,0.53735
0.8378,-0.025325,0.53725
0.8376,-0.02585,0.5418
0.839475,-0.02645,0.539275
0.8407,-0.0259,0.535025
0.83715,-0.025375,0.53925
0.8375667,-0.0247333,0.5435
0.839125,-0.0245,0.5396
0.84114,-0.0265,0.536
0.8376,-0.02585,0.542425
0.837075,-0.024375,0.541925
0.83595,-0.0242,0.539875
0.8388333,-0.0259,0.5412333
0.84092,-0.02512,0.54312
0.845025,-0.02595,0.538575
0.842125,-0.02485,0.5354
0.841625,-0.0253,0.5371
0.8441333,-0.0273667,0.5333
0.84372,-0.02696,0.53212
0.838925,-0.02535,0.534975
0.837025,-0.02145,0.53855
0.840125,-0.022475,0.53485
0.8442333,-0.0268667,0.5404667
0.8442,-0.028125,0.5412
0.8406,-0.0269,0.53832
0.8409,-0.0236667,0.5303
0.8406,-0.02035,0.529075
0.8398333,-0.0189333,0.5333667
0.841875,-0.020575,0.538025
0.84514,-0.02714,0.53642
0.845575,-0.02805,0.534875
0.844025,-0.0265,0.53095
0.8426,-0.0223,0.5282333
0.8409,-0.0197,0.528875
0.84138,-0.02608,0.5395
0.840575,-0.025825,0.53785
0.8401,-0.022625,0.5316
0.844875,-0.022725,0.53095
0.84565,-0.0239,0.5286
0.8452667,-0.0242667,0.5346
0.8445,-0.0237429,0.5308
0.8457,-0.02285,0.52825
0.843575,-0.023225,0.53065
0.84525,-0.02245,0.53165
0.8444167,-0.0231167,0.5302
0.84575,-0.02525,0.527725
0.84785,-0.025725,0.526075
0.8499333,-0.0243667,0.5267
0.8459333,-0.0229333,0.5271667
0.8414667,-0.0222,0.5314
0.842475,-0.0255,0.528325
0.846475,-0.02535,0.523675
0.8468667,-0.0253,0.5259333
0.84686,-0.02322,0.53016
0.844225,-0.021675,0.5261
0.847925,-0.024025,0.5219
0.85105,-0.027375,0.5265
0.8522333,-0.0287333,0.5273667
0.8460333,-0.0248667,0.5251667
0.8440667,-0.01875,0.5217167
0.8437,-0.01905,0.52745
0.844575,-0.023275,0.539
0.84615,-0.02585,0.5383
0.8425667,-0.0239667,0.52825
0.843825,-0.022175,0.523375
0.8465,-0.021875,0.52855
0.8470667,-0.0239333,0.5294667
0.84566,-0.0245,0.52792
0.846825,-0.02565,0.527675
0.849575,-0.027925,0.529775
0.84605,-0.0283,0.531075
0.841975,-0.024825,0.5291
0.8406,-0.0212,0.52945
0.8446833,-0.0208833,0.5278833
0.8457,-0.0228,0.533775
0.8445333,-0.0246333,0.5327333
0.84312,-0.02516,0.53166
0.8458667,-0.0255333,0.5326667
0.8491,-0.0244,0.52688
0.846625,-0.021425,0.521775
0.8456,-0.0210667,0.5278333
0.8444,-0.02282,0.5284
0.8421333,-0.0232,0.5298
0.844175,-0.024125,0.53
0.84612,-0.02464,0.53238
0.8463,-0.0248,0.5320667
0.844875,-0.025475,0.52925
0.846025,-0.02345,0.5282
0.846225,-0.022325,0.528125
0.84515,-0.0229,0.529775
0.84205,-0.0235,0.53145
0.841575,-0.0235,0.534925
0.84215,-0.023075,0.53325
0.84445,-0.0211,0.531075
0.84535,-0.0262,0.529475
0.85475,-0.0275,0.5277
0.847575,-0.0255,0.5282
0.84735,-0.0223,0.520075
0.8405,-0.01815,0.5266
0.84095,-0.020175,0.532775
0.84375,-0.025025,0.534375
0.845725,-0.02585,0.53065
0.84485,-0.026075,0.530825
0.844275,-0.024175,0.528325
0.84675,-0.0226,0.522025
0.844625,-0.021,0.525075
0.8447,-0.022975,0.53445
0.846575,-0.025675,0.533325
0.846575,-0.027925,0.528625
0.843575,-0.028425,0.5308
0.8426,-0.024,0.528375
0.84505,-0.019725,0.5269
0.845525,-0.0225,0.53155
0.843525,-0.024975,0.53445
0.84195,-0.0261,0.53305
0.84255,-0.02455,0.531075
0.843575,-0.02455,0.533375
0.846325,-0.0256,0.532175
0.845025,-0.02195,0.5281
0.843825,-0.022075,0.52605
0.843775,-0.025125,0.533825
0.841,-0.02475,0.537325
0.8423667,-0.0243333,0.5309667
0.84664,-0.0266,0.53006
0.84585,-0.024625,0.532075
0.8425,-0.0226,0.52935
0.838575,-0.02325,0.533125
0.841075,-0.0253,0.5381
0.845875,-0.026025,0.5328
0.84565,-0.026775,0.532475
0.84175,-0.024075,0.5376
0.8404,-0.023475,0.536625
0.8387,-0.023475,0.529425
0.8444333,-0.024,0.5323333
0.84666,-0.02998,0.5372
0.844425,-0.0281,0.53515
0.841975,-0.0218,0.526025
0.837525,-0.0178,0.5296
0.840025,-0.021325,0.54145
0.841925,-0.0264,0.541975
0.8430667,-0.0305667,0.5381
0.83992,-0.02792,0.53762
0.83975,-0.0209,0.531675
0.842175,-0.0201,0.53055
0.8404667,-0.0232667,0.5378667
0.84205,-0.02655,0.540125
0.8421,-0.0283,0.53235
0.84125,-0.0287,0.5352
0.841875,-0.027925,0.537275
0.837825,-0.024625,0.5368
0.836225,-0.021875,0.5426
0.83925,-0.022125,0.539575
0.84,-0.02525,0.53725
0.84035,-0.02475,0.540725
0.83845,-0.023825,0.537325
0.839775,-0.019125,0.528175
0.837525,-0.026375,0.5442
0.844,-0.024175,0.537975
0.846575,-0.026525,0.538225
0.840425,-0.02635,0.538125
0.841075,-0.0245,0.534175
0.83545,-0.02325,0.536925
0.836025,-0.025475,0.543825
0.83755,-0.02645,0.5456
0.83795,-0.024575,0.5425
0.84265,-0.025525,0.5332
0.838625,-0.0234,0.5374
0.840625,-0.02435,0.5403
0.836675,-0.0253,0.5439
0.83575,-0.02525,0.542
0.84115,-0.02615,0.537725
0.8401,-0.0254,0.539775
0.83815,-0.024925,0.5412
0.83775,-0.024925,0.53755
0.843925,-0.02615,0.537775
0.842975,-0.0262,0.539125
0.837275,-0.021925,0.53785
0.835275,-0.018875,0.536925
0.837475,-0.0206,0.5398
0.84175,-0.02695,0.542425
0.845,-0.02945,0.542625
0.8413,-0.024575,0.53995
0.843075,-0.021875,0.5274
0.8398,-0.02305,0.528975
0.83755,-0.02245,0.5383
0.83835,-0.024075,0.543475
0.845825,-0.027925,0.533525
0.84755,-0.02855,0.52955
0.84285,-0.02645,0.535875
0.837525,-0.02195,0.53545
0.838875,-0.021875,0.533025
0.8439,-0.0252,0.5359
0.84258,-0.02718,0.54336
0.84485,-0.02505,0.5383
0.8439,-0.024025,0.533475
0.8375333,-0.0228,0.5339
0.84484,-0.02212,0.525
0.8466,-0.020375,0.5334
0.84425,-0.0256,0.5366
0.8446,-0.0256,0.5238
0.8460333,-0.0257,0.5232667
0.84566,-0.0254,0.52914
0.839875,-0.023025,0.530575
0.8467333,-0.0234333,0.5281667
0.8529,-0.02678,0.52892
0.8508333,-0.0258333,0.5334
0.8447,-0.02415,0.525575
0.850425,-0.02635,0.5173
0.855375,-0.02865,0.5176
0.84155,-0.02565,0.530825
0.850625,-0.0247,0.522225
0.85415,-0.02415,0.521875
0.849425,-0.025775,0.51885
0.84715,-0.025725,0.5203
0.846875,-0.0245,0.5268
0.855725,-0.027725,0.52015
0.857875,-0.028675,0.512375
0.85285,-0.025475,0.51225
0.8492,-0.0191,0.513
0.8494,-0.018325,0.512225
0.8442333,-0.0200167,0.5216833
0.847325,-0.026625,0.5277
0.848025,-0.02645,0.521575
0.85075,-0.0255,0.5149
0.85005,-0.0222,0.5087
0.8569333,-0.0231833,0.51675
0.85085,-0.0234,0.5188
0.858875,-0.02815,0.517925
0.858975,-0.02775,0.523425
0.8576,-0.026625,0.5112
0.846275,-0.0254,0.50395
0.861225,-0.027075,0.524175
0.8503,-0.02475,0.516575
0.841775,-0.024825,0.504975
0.8635,-0.02645,0.51725
0.8665,-0.0289,0.53125
0.8497,-0.026525,0.5104
0.849575,-0.0235,0.509
0.854775,-0.024025,0.510825
0.844225,-0.02585,0.498425
0.848325,-0.026025,0.499475
0.871225,-0.029575,0.534425
0.846,-0.025225,0.511075
0.862275,-0.02585,0.50765
0.872425,-0.0271,0.5189
0.8536,-0.0228,0.506425
0.85055,-0.027675,0.502775
0.8553,-0.027375,0.5095
0.84565,-0.025375,0.49575
0.86665,-0.0234,0.5119
0.85845,-0.0208,0.50425
0.864975,-0.023875,0.508225
0.85965,-0.0231,0.501
0.863625,-0.024975,0.503425
0.856125,-0.026825,0.494125
0.8559667,-0.0263,0.4942
0.8624,-0.02308,0.50106
0.858325,-0.0182,0.4952
0.8709,-0.020725,0.5059
0.859775,-0.018375,0.506925
