accx,accy,accz
0.81395,0.005725,-0.006625
0.866225,0.021675,-0.037625
0.914225,0.05375,0.047275
0.9422,0.074225,0.04795
0.9561,0.0785,0.018975
0.941625,0.104225,0.02545
0.91795,0.128875,0.0158
0.892775,0.1375,0.039325
0.873975,0.1208,0.089125
0.847675,0.0988,0.074525
0.77325,0.1047,0.07625
0.7,0.097525,0.0678
0.65195,0.099125,0.049225
0.6646,0.085125,0.0607
0.6957,0.084525,0.124525
0.733125,0.088925,0.142675
0.8132,0.081075,0.0507
0.8927,0.0940667,0.023
0.96794,0.10842,0.08424
1.0034,0.10745,0.113725
1.0245333,0.0499333,0.1041
1.0912,-0.03692,-0.14842
1.215175,-0.1018,-0.3453
1.259,-0.03795,-0.2906
1.2876,0.029825,-0.135625
1.4234,0.0847,0.155675
1.56535,-0.0023,0.402575
1.558775,-0.137625,-0.0243
1.570475,-0.1072,-0.180025
1.454375,-0.0526,-0.0238
1.090875,0.025775,0.031675
0.849225,0.011325,0.1164
0.6723,-0.05595,0.0878
0.584175,-0.0297,-0.02055
0.626325,0.004,-0.10775
0.7772,0.040525,-0.1368
0.85385,0.0399,-0.094125
0.895875,0.049575,-0.061425
0.92865,0.036775,-0.035475
0.944325,0.027125,-0.04965
0.962425,-0.026475,-0.041175
0.9381667,-0.0997,0.0832333
0.89652,-0.11944,0.1671
0.848525,-0.15355,0.191025
0.8478,-0.1257,0.17365
0.813525,-0.1119,0.128575
0.77155,-0.0776,0.06935
0.776125,-0.0297,0.035475
0.814025,0.009575,0.079275
0.798275,0.0402,0.0292
0.815775,0.03115,-0.05105
0.8516333,0.029,-0.1067
0.8904,0.03326,-0.09462
0.9619,0.049575,-0.010325
1.046075,0.114625,-0.128675
1.159575,0.182025,-0.2592
1.2336,0.1632,-0.1182667
1.274225,0.0969,-0.007175
1.432425,0.027625,-0.04445
1.5743,0.07945,0.08375
1.626075,0.19725,0.13675
1.601575,0.177775,-0.2733
1.453575,0.135125,-0.4
1.09515,0.1048,-0.133925
0.77855,0.045575,0.058525
0.577325,0.018275,0.06645
0.538025,-0.031525,0.067125
0.690075,-0.019875,0.080575
0.810575,0.0107,0.087
0.861125,0.059025,0.090175
0.8996,0.0778,0.056
0.97205,0.078325,0.046175
1.0366667,0.078,0.0158333
1.04122,0.09414,-0.07486
0.990625,0.115925,-0.06975
0.950225,0.136625,0.057725
0.9015,0.119875,0.111375
0.861,0.0978667,0.0998333
0.79786,0.07376,0.08798
0.712025,0.049625,0.064225
0.627575,0.03585,0.04805
0.593625,0.034125,0.01525
0.5914,0.0323,0.0063
0.6342,0.032,0.01646
0.76625,0.04505,0.051675
0.86875,0.033675,0.1261
0.9226,0.02555,0.145775
1.010575,-0.03005,0.068825
1.1421,-0.0945,-0.02215
1.281775,-0.134075,-0.149025
1.43225,-0.185525,-0.251725
1.53185,-0.1034,-0.276125
1.6795,-0.1125,0.083325
1.68755,-0.12795,0.221
1.6393,-0.216825,-0.119425
1.59605,-0.1225,-0.126475
1.286,-0.0234,-0.156275
0.8838333,0.0641,-0.1168333
0.5961,0.04486,0.08148
0.4946667,0.0464333,0.2224
0.51776,-0.00328,0.0259
0.6098,0.0382333,-0.1696
0.73238,0.02672,-0.11436
0.8075,0.0278,-0.046775
0.933475,0.001225,-0.0442
1.059175,-0.01705,-0.0472
1.154175,-0.056225,-0.0714
1.1700667,-0.0933667,-0.0969333
1.08088,-0.09876,0.01244
0.99405,-0.151675,0.196875
0.9285667,-0.1544333,0.2401333
0.868075,-0.179175,0.170825
0.83385,-0.143225,0.0954
0.793975,-0.125325,0.078
0.754925,-0.0707,0.0018
0.67235,-0.027675,-0.0373
0.6328,0.009425,0.023325
0.669975,0.0208,0.072
0.74218,0.0204,0.07864
0.7488,0.040125,0.011075
0.8111667,0.0354,-0.0793333
0.9578,0.058525,-0.109825
1.0779333,0.0710667,-0.067
1.18314,0.13362,-0.18202
1.4028333,0.1106667,-0.0441333
1.57978,0.06764,-0.07228
1.625775,0.0917,-0.12745
1.6511,0.152175,0.077025
1.584675,0.213075,0.1177
1.456075,0.13835,-0.060875
1.172775,0.059825,-0.08475
0.8274,0.01305,0.024675
0.6050667,-0.0254667,0.0983
0.50458,-0.0225,0.0662
0.59785,0.010925,0.0284
0.736525,0.0391,0.154575
0.837175,0.06635,0.187425
0.8865333,0.0589333,0.1080667
0.93174,0.06032,0.01696
1.040975,0.047425,-0.051675
1.10925,0.0319,-0.053625
1.013825,0.050375,0.012
0.9392333,0.0583333,0.0788333
0.87088,0.0731,0.14504
0.794125,0.076275,0.1514
0.74135,0.052375,0.1002
0.702475,0.0609,0.0013
0.6613333,0.0815667,0.0152667
0.63896,0.05806,0.04524
0.59725,0.0781,0.023625
0.611925,0.07735,0.004925
0.708525,0.0493,-0.007725
0.7838667,0.0465333,0.0153667
0.93782,-0.00142,0.0503
1.156025,-0.0712,-0.12005
1.218025,-0.059825,-0.237325
1.25595,-0.04925,-0.145025
1.2923667,-0.0507667,-0.0674333
1.62816,-0.12884,0.0724
2.14785,-0.25775,0.039025
2.007075,-0.101075,-0.005675
1.6185,-0.0931,-0.042375
1.2214,-0.0788333,0.1457333
0.90986,-0.12666,0.31208
0.731125,-0.14355,0.0791
0.697675,-0.167975,-0.06755
0.7642333,-0.1308333,-0.0097333
0.8252,-0.06905,-0.010375
0.83312,0.0215,-0.04142
0.856775,0.02425,0.02695
0.898525,0.01365,0.03305
0.9354,-0.0277333,-0.0003
0.8951,-0.046625,-0.0591
0.877325,-0.099725,-0.0867
0.8828,-0.144225,-0.055675
0.841125,-0.169375,0.01065
0.7823,-0.15815,0.09615
0.71275,-0.136025,0.14035
0.653875,-0.120875,0.1153
0.59105,-0.133225,0.084625
0.59675,-0.1078,0.085325
0.682,-0.04045,0.11185
0.7584,0.015625,0.14015
0.759125,0.068,0.117775
0.7827,0.08385,0.1156
0.911325,0.078975,0.091625
1.07275,0.04895,-0.087475
1.1735667,0.0698333,-0.2745667
1.30332,0.1241,-0.16512
1.50045,0.132025,-0.059625
1.6157,0.10665,0.197775
1.793175,0.06385,0.40365
1.8566667,0.0601667,0.2557667
1.75718,0.07016,-0.02856
1.483625,-0.0241,-0.119325
1.1446,-0.058525,-0.024525
0.80265,-0.1095,0.152625
0.599325,-0.1097,0.14595
0.536625,-0.0958,0.12445
0.511875,-0.019975,0.05895
0.592775,0.03905,0.02205
0.6672,0.038925,0.119825
0.7087333,0.0490333,0.1414
0.77876,0.06374,0.11082
0.902325,0.051375,0.09035
0.95365,0.05335,0.1644
0.9309,0.09105,0.2292
0.8769,0.1026,0.2419667
0.85766,0.05994,0.19696
0.8496,0.00805,0.16625
0.75075,0.0035,0.17485
0.654,-0.0215,0.1554667
0.61002,-0.03026,0.12092
0.681025,0.0036,0.17475
0.6581,0.027375,0.2576
0.67535,0.038175,0.20665
0.79755,0.0122,0.12065
0.8613333,0.0135,0.0193
1.0016667,0.0097,-0.1624333
1.42685,0.0500833,-0.5443667
2.001225,0.039125,-0.506325
1.9898333,-0.0291333,-0.3168333
1.78338,-0.09948,-0.4906
1.885925,-0.3487,-0.4493
1.888125,-0.4675,-0.2794
1.398925,-0.44285,-0.0345
0.8481667,-0.4319,0.3104333
0.446125,-0.2995,0.18855
0.4453,-0.07554,0.05364
0.81525,0.0767,-0.02525
1.028475,0.1061,-0.0317
0.9467333,0.0663333,0.0412667
0.8928667,0.0452333,0.0767
0.86958,-0.02606,0.02732
0.889175,-0.08555,-0.07735
0.956075,-0.1006,-0.112475
1.028575,-0.09595,-0.10385
1.087025,-0.12,-0.06505
1.0425,-0.153675,-0.025775
0.969825,-0.1691,-0.018175
0.958225,-0.1763,-0.020625
0.9829,-0.1809,-0.004375
0.9722333,-0.1819333,0.0378667
0.93246,-0.19048,0.0929
0.884025,-0.188725,0.106225
0.85835,-0.170175,0.121575
0.852175,-0.16305,0.145475
0.85735,-0.180225,0.152925
0.8688,-0.186975,0.11795
0.903325,-0.167975,0.063725
1.006075,-0.163725,0.047525
1.1064,-0.188225,0.112025
1.144825,-0.216325,0.212275
1.163775,-0.18705,0.2494
1.22795,-0.0772,0.006325
1.234375,0.142325,-0.67825
1.1202,0.244925,-0.6971
1.2423333,0.1861333,-0.3203333
1.39538,0.14264,-0.18896
1.236025,-0.07835,0.0472
1.03455,-0.012,0.046
0.80825,0.01345,-0.0658
0.6935333,0.0231333,-0.1756667
0.83662,-0.08476,-0.1258
1.120725,-0.093,-0.0285
1.108925,-0.08365,-0.21265
1.03555,-0.022925,-0.073025
0.9645,0.0215,0.1301333
0.8516,0.05286,0.07254
0.7472,0.0827,-0.0961
0.806475,0.052,-0.1543
0.9519667,0.0242,-0.1635667
0.96484,0.02192,-0.11642
0.939775,0.0424,-0.045175
0.863625,0.06465,0.030575
0.785225,0.10995,-0.03845
0.7767667,0.1116333,-0.1033667
0.743625,0.10425,-0.0394
0.68862,0.05436,0.12254
0.655,0.0273,0.1344
0.584775,0.04865,-0.046425
0.6321333,0.0784,-0.1316333
0.66456,0.05758,-0.05906
0.644625,0.063975,0.095725
0.686225,0.037875,0.10795
0.748825,0.0405,0.01875
0.7876,0.0525,0.0827333
0.7598,0.049375,0.166675
0.85872,0.03196,0.07708
1.1355,-0.035725,0.070925
1.3297,-0.05205,-0.0091
1.4274667,0.0114333,-0.3246667
1.4424,0.0720333,-0.3970667
1.56286,0.10928,-0.3214
1.74605,0.027575,0.04495
1.62426,-0.16628,-0.04648
1.6851333,-0.2336667,-0.0653
1.62955,-0.099175,-0.094075
1.273,-0.06365,0.013825
0.910825,-0.083875,0.18995
0.720425,-0.089025,0.213875
0.642525,-0.043575,0.0197
0.6685667,-0.0218,-0.1385
0.69698,-0.01104,-0.13222
0.711775,-0.019125,0.033175
0.755275,-0.01565,0.08755
0.88085,-0.042825,0.029225
0.954975,-0.0682,-0.050025
0.9778,-0.0795,-0.08455
0.977375,-0.11115,-0.0434
0.971425,-0.1312,0.02705
0.91425,-0.12515,0.061325
0.8499667,-0.105,0.0451
0.80088,-0.07626,0.06688
0.778175,-0.063675,0.10825
0.737675,-0.054325,0.103675
0.679625,-0.036075,0.046175
0.6578667,-0.0377667,0.0178
0.71922,-0.01546,0.04404
0.771775,-0.007325,0.071825
0.74485,-0.007875,-0.042975
0.7711333,-0.0074667,-0.1422333
0.92324,0.0177,-0.08048
1.161325,0.11585,-0.0023
1.35695,0.17725,-0.0297
1.425975,0.131,-0.109225
1.448725,0.098575,-0.188125
1.5303667,0.1158,-0.0057
1.58528,0.22478,0.30478
1.534725,0.2533,-0.00055
1.52055,0.214275,-0.3837
1.411875,0.119825,-0.221575
1.1079667,0.0461333,-0.0504667
0.78722,0.03748,0.03936
0.587375,0.032375,0.059075
0.57575,0.0528,0.0996
0.7012,0.0721,0.093975
0.7872,0.0851,0.0485
0.81542,0.07974,0.03488
0.83215,0.073925,0.02945
0.8616,0.069225,0.034775
0.9015333,0.0596333,0.0178667
0.91035,0.074925,-0.021525
0.85942,0.10344,-0.04228
0.7363,0.129975,0.04735
0.691725,0.120125,0.115775
0.6577333,0.1082333,0.1172667
0.6308333,0.1034667,0.0648
0.65975,0.0821333,0.0927833
0.738975,0.05525,0.144
0.8119,0.074175,0.11995
0.8589667,0.0957667,0.1069333
0.87405,0.090925,0.083675
0.94528,0.05214,-0.0006
1.061975,-0.019825,-0.141625
1.140825,-0.015325,-0.2692
1.2724667,-0.0226,-0.3068
1.485175,-0.063475,-0.231275
1.68885,-0.07375,-0.040725
1.784,-0.04765,-0.037
1.7804,0.016375,-0.207275
1.710225,0.0564,-0.208125
1.4377667,0.0272333,-0.1203
1.13462,-0.03144,0.07972
0.83905,-0.057625,0.07445
0.6812,-0.041325,-0.074625
0.626075,-0.01485,-0.15585
0.663975,-0.006975,-0.086425
0.68775,0.0254,-0.0441
0.689,0.07155,-0.0522
0.7003,0.084025,-0.032725
0.70845,0.060625,-0.0181
0.7279667,0.0173667,-0.0435667
0.74948,-0.0433,-0.09608
0.7543,-0.1006,-0.057
0.735725,-0.1249,0.077475
0.7414,-0.11145,0.12445
0.7441,-0.0675,0.0422333
0.74854,-0.01134,-0.11584
0.72485,0.01945,-0.047225
0.732525,0.00795,0.087325
0.787125,-0.010625,0.11105
0.9711,0.0128667,0.0619
1.14188,0.08558,-0.00954
1.343775,0.126725,-0.211475
1.6259,0.107025,-0.151925
1.5902,0.109325,-0.124725
1.4684333,0.1049667,-0.1649667
1.5072,0.114825,-0.0162
1.5287,0.14242,0.15798
1.5043,0.178625,0.073175
1.3622,0.14115,-0.17945
1.2706,0.1094333,-0.2529333
0.97054,0.06788,-0.02078
0.66545,0.048625,0.097975
0.519725,0.02615,0.059575
0.5171667,0.0208667,0.0365
0.5950667,0.0174333,0.0459667
0.6861333,0.0408333,0.0754833
0.72315,0.049875,0.062125
0.7721,0.021,0.04735
0.7742667,0.0195667,-0.0078667
0.7266667,0.0291667,-0.0824
0.64072,0.04338,-0.0643
0.62266,0.05746,0.0667
0.6677667,0.0679333,0.0869333
0.6784,0.0864,-0.007075
0.7244667,0.0701,-0.0354667
0.77738,0.06652,0.01398
0.82222,0.05254,0.03714
0.894,0.0600667,0.1577
1.09725,0.04775,0.0799
1.3362,0.028775,-0.146675
1.443975,0.002825,-0.27545
1.356425,0.063675,-0.146275
1.579225,0.03905,0.14925
1.776825,-0.1103,0.321425
1.739875,-0.173,-0.058275
1.74895,-0.048325,-0.1704
1.632975,0.084525,-0.157625
1.196225,0.07095,0.14175
0.859,-0.015575,0.363675
0.6655333,-0.0367333,0.1551667
0.58446,-0.00692,-0.15118
0.686125,-0.0325,-0.120775
0.76475,-0.035,-0.0507
0.829325,-0.000125,-0.048725
0.84385,0.035,-0.0337
0.82205,0.0548,-0.0082333
0.765675,0.01325,0.05355
0.702675,-0.054325,0.09235
0.6411,-0.08255,-0.000625
0.561075,-0.05595,-0.070325
0.5423333,-0.0312,-0.0100667
0.52668,-0.00714,0.11898
0.570975,-0.009525,0.1223
0.549825,-0.00055,0.01665
0.57105,-0.003225,-0.1109
0.665275,-0.015575,-0.077975
0.986825,-0.005325,0.19765
1.2183,0.00525,0.33905
1.379025,0.099925,-0.164
1.666425,0.206375,-0.260625
1.92795,0.1504,-0.019875
1.863925,0.096775,0.044325
1.73615,0.0999,0.086825
1.70325,0.171475,0.0958
1.64515,0.2429,0.065
1.468425,0.153425,-0.176325
1.1593,0.07765,-0.17205
0.8789,-0.0163,0.041825
0.63165,-0.04345,0.104
0.5117333,-0.0446333,0.0825
0.51164,-0.023,0.0462
0.62525,0.011125,0.021975
0.716425,0.0359,0.064125
0.773675,0.0591,0.087475
0.8409667,0.0529,0.0502
0.93168,0.04436,-0.0321
0.980625,0.04205,-0.0071
0.915575,0.04505,0.0653
0.8695,0.0684667,0.0520333
0.8232,0.0874,0.031775
0.78854,0.0824,0.0675
0.7492,0.092025,0.001425
0.723675,0.105175,-0.035225
0.730825,0.0837,0.0133
0.7227667,0.0410667,0.0123333
0.65084,0.02274,-0.01112
0.5772333,0.0063667,0.0291333
0.5274,0.016675,0.10385
0.545,0.012425,0.1232
0.6889333,0.0099667,0.1085667
0.95458,-0.02028,0.0562
1.23775,-0.02515,-0.03085
1.34035,-0.06575,-0.213425
1.520675,-0.132,-0.129025
1.860925,-0.184125,0.20915
2.058625,-0.169075,0.106175
1.974475,-0.2005,-0.1081
1.8363,-0.090375,-0.238175
1.4846,-0.040225,-0.023675
1.0937333,-0.109,0.2944333
0.73218,-0.12512,0.34888
0.612275,-0.043075,0.0045
0.750025,-0.050625,-0.082875
0.871375,-0.076825,-0.020825
0.909025,-0.0759,-0.061825
0.8878,-0.0407,-0.0849
0.813,0.001375,-0.0607
0.740525,0.00055,0.0053
0.717925,-0.040025,0.047
0.674375,-0.0621,0.04585
0.6756,-0.0841333,0.0299
0.7309,-0.09524,0.0534
0.778725,-0.127525,0.087075
0.744725,-0.116525,0.051775
0.6795,-0.0763333,0.0611333
0.6323333,-0.0539667,0.1127
0.6099667,-0.0463667,0.1723833
