accx,accy,accz
0.98542,0.12684,0.2187
0.95656,0.1316,0.15066
0.9554,0.10155,0.119875
0.95265,0.086725,0.133425
0.9633,0.0951,0.119925
0.977275,0.101875,0.0989
0.955825,0.121225,0.1141
0.9645,0.135725,0.101425
0.9638667,0.1509,0.1053
0.9649,0.15604,0.1154
0.97595,0.1705,0.098275
0.9494333,0.1673667,0.071
0.92266,0.21856,0.19528
0.94025,0.1587,0.169575
0.92155,0.1696,0.016825
0.9724,0.140875,0.118525
0.965375,0.157975,0.137825
0.98405,0.16345,0.1632
0.97325,0.17675,0.1808
0.9405,0.19365,0.165875
0.9359667,0.1987333,0.1642333
0.94086,0.19656,0.14564
0.9593,0.18655,0.10075
0.9843333,0.1712333,0.10295
1.07495,0.154775,0.103975
1.0526,0.1747333,0.0774333
0.92592,0.19372,0.07088
0.8465,0.24245,0.02485
0.87256,0.26774,-0.06182
0.72932,0.33232,-0.08376
0.8181333,0.2967667,0.111
0.877675,0.278125,0.058225
0.89316,0.25074,-0.11092
0.897,0.22335,-0.1508
0.8045667,0.2155333,-0.1548667
0.716225,0.2184,-0.1665
0.670575,0.235475,-0.18555
0.61758,0.26826,-0.11906
0.6067333,0.2517333,-0.2232333
0.660575,0.257475,-0.324375
1.094,0.24225,-0.237
1.16915,0.315075,-0.191125
1.0624,0.315075,-0.023875
0.870625,0.25885,0.07485
0.67015,0.237325,-0.143575
0.596525,0.170725,-0.494975
0.677875,0.1009,-0.50385
0.752475,0.079925,-0.3604
0.89625,0.0914,-0.3297
0.906325,0.128475,-0.28915
0.8264,0.1625,-0.249475
0.8051,0.2202,-0.3174333
0.852625,0.28775,-0.450025
0.71564,0.3437,-0.51854
0.594075,0.3788,-0.815275
0.6352,0.372375,-1.02785
0.716225,0.319975,-0.710575
0.750025,0.2327,-0.16145
0.787175,0.193225,-0.03595
0.8057,0.191275,-0.04785
0.80195,0.2352,-0.245875
0.88275,0.2902,-0.537825
0.89905,0.32295,-0.6056
0.87235,0.318875,-0.60925
0.926025,0.31095,-0.56645
0.900475,0.33855,-0.421025
0.878625,0.353375,-0.28865
0.922825,0.3961,-0.342425
0.973875,0.4241,-0.351575
0.979,0.437925,-0.318725
1.018675,0.42785,-0.2479
1.061675,0.40135,-0.196675
1.094125,0.402025,-0.240925
1.11615,0.4002,-0.1973
1.112225,0.394225,-0.058575
1.0953667,0.3996,-0.0377667
1.04574,0.41998,-0.0502
1.0119333,0.4137667,-0.0019333
0.97645,0.4052,0.006
0.9852143,0.3847286,0.0509286
0.947925,0.332875,0.1084
0.9003,0.266575,0.121875
0.946075,0.18595,0.154275
1.0397,0.14685,0.2042
1.151925,0.13925,0.2948
1.0774333,0.1766667,0.3617333
1.00534,0.20084,0.4548
0.92215,0.286925,0.40465
0.809525,0.29625,0.3652
0.8065,0.193,0.39395
0.8055333,0.0952667,0.5016
0.86245,0.00725,0.596375
0.8762,-0.0352333,0.6558333
0.8671,-0.0316,0.640525
0.8429333,0.0146167,0.6292833
0.872625,-0.01195,0.747225
0.8784667,-0.0005,0.7221667
0.8390333,0.0316333,0.6502333
0.7891,0.0278667,0.5398333
0.9087857,-0.0637857,0.4087
0.8222,-0.092825,0.54545
0.7665,-0.0639333,0.5374
0.7526667,-0.0141333,0.5250667
0.7409,-0.01925,0.5324
0.76894,-0.0487,0.6097
0.82055,-0.12095,0.61235
0.78075,-0.0896,0.6604
0.7672,-0.102425,0.681075
0.75475,-0.053225,0.713475
0.734875,-0.04835,0.726725
0.75205,-0.0389,0.71845
0.765575,-0.041975,0.72765
0.770125,-0.072525,0.71585
0.742375,-0.094775,0.732775
0.716775,-0.11085,0.8175
0.764775,-0.13835,0.853825
0.7561,-0.1543,0.788175
0.757075,-0.127775,0.593475
0.722825,-0.111025,0.398775
0.6879,-0.0929,0.3628
0.7199571,-0.0466,0.4303714
0.7936,-0.042275,0.6121
0.794375,-0.02785,0.672475
0.81705,-0.024,0.657475
0.8029333,-0.0108,0.6113667
0.80126,-0.0289,0.59162
0.8011,-0.069975,0.627125
0.743975,-0.07365,0.657975
0.704,-0.0762,0.702175
0.70855,-0.068825,0.745975
0.710925,-0.059975,0.724425
0.7178,-0.058575,0.70475
0.7188,-0.056575,0.695075
0.69815,-0.056275,0.669875
0.657975,-0.011625,0.629025
0.78455,-0.04625,0.646825
0.6881,-0.093225,0.778025
0.703525,-0.11045,0.7937
0.700725,-0.1062,0.81465
0.661175,-0.0762,0.749875
0.650975,-0.058425,0.6998
0.6451,-0.05945,0.691
0.65065,-0.0655,0.711325
0.7133,-0.07205,0.73325
0.72565,-0.0792,0.75135
0.7203,-0.076975,0.778625
0.7011,-0.0842,0.76885
0.677375,-0.078325,0.7279
0.68325,-0.08055,0.72295
0.686175,-0.07725,0.723375
0.6938,-0.079925,0.737275
0.7029333,-0.0868333,0.7332333
0.7178667,-0.0905333,0.7175
0.7191,-0.0936,0.6867333
0.6919,-0.0718143,0.6435571
0.7166333,-0.076,0.6811
0.70945,-0.078225,0.713275
0.70842,-0.0707,0.69664
0.712325,-0.068575,0.664175
0.71715,-0.073425,0.6776
0.7145333,-0.0768,0.7077
0.720475,-0.0781,0.712375
0.71774,-0.07794,0.70808
0.70505,-0.075575,0.712625
0.7042667,-0.0791667,0.7043333
0.713325,-0.082125,0.713975
0.7165,-0.082975,0.718375
0.7119,-0.087725,0.7113
0.70175,-0.08775,0.7034
0.703275,-0.09355,0.712325
0.7009,-0.0958,0.708725
0.700875,-0.094725,0.711025
0.6975,-0.0939333,0.7207
0.6947,-0.0912,0.7258
0.698975,-0.100375,0.7288125
0.703025,-0.109025,0.742975
0.70075,-0.108275,0.743
0.69485,-0.108275,0.7147
0.7008,-0.0993,0.671075
0.71185,-0.087675,0.6687
0.7244,-0.091175,0.693125
0.726325,-0.0907,0.692775
0.721625,-0.09435,0.6954
0.711325,-0.093125,0.6907
0.70815,-0.0913,0.696725
0.70585,-0.091125,0.7086
0.7076,-0.091975,0.706425
0.71115,-0.09625,0.701925
0.71165,-0.096625,0.696675
0.71345,-0.095875,0.70005
0.71625,-0.09495,0.69755
0.716975,-0.08975,0.70095
0.7163,-0.086225,0.704075
0.713925,-0.08885,0.7016
0.714525,-0.09375,0.685175
0.716,-0.09735,0.6817
0.719475,-0.10105,0.68575
0.7194,-0.098325,0.692825
0.717125,-0.097475,0.6976
0.71685,-0.096625,0.696625
0.71725,-0.0952,0.69935
0.7166,-0.096375,0.69965
0.715525,-0.093725,0.701825
0.7169,-0.09265,0.70625
0.716375,-0.09135,0.698375
0.71445,-0.0922,0.692175
0.712675,-0.0936,0.69225
0.7158,-0.094825,0.69095
0.7139,-0.100375,0.702
0.7131,-0.10105,0.695825
0.71385,-0.100375,0.69405
0.716475,-0.0971,0.69565
0.7188,-0.0916,0.694675
0.718375,-0.08915,0.6927
0.71665,-0.090925,0.698625
0.71415,-0.09435,0.700475
0.7109,-0.095825,0.7019
0.709425,-0.09435,0.7028
0.715625,-0.0933,0.701675
0.71515,-0.0897,0.6935
0.7118,-0.0878,0.7059
0.713675,-0.0925,0.71215
0.711575,-0.0901,0.697475
0.71025,-0.090325,0.694175
0.713225,-0.0916,0.697825
0.715125,-0.0916,0.697175
0.71385,-0.0929,0.6995
0.71155,-0.0936,0.698825
0.7133,-0.0928,0.69945
0.714875,-0.090325,0.69825
0.712075,-0.09045,0.697225
0.711375,-0.092025,0.698775
0.7111,-0.0930333,0.6987333
0.71074,-0.0945,0.7018
0.711025,-0.094875,0.706275
0.71125,-0.0927,0.706475
0.711825,-0.093075,0.70265
0.7117667,-0.0939,0.6993
0.71124,-0.09278,0.69838
0.7078,-0.091175,0.704725
0.71245,-0.091975,0.706025
0.71265,-0.09435,0.70585
0.7103,-0.094775,0.703025
0.71225,-0.094225,0.6966
0.709975,-0.0913,0.695575
0.708725,-0.090125,0.702225
0.709825,-0.089975,0.704125
0.7088,-0.0917333,0.6991
0.7089,-0.0922,0.699425
0.71246,-0.0955,0.70724
0.71155,-0.094125,0.71715
0.707425,-0.096125,0.7116
0.7087,-0.096125,0.702625
0.712725,-0.0924,0.6932
0.7149,-0.087,0.69895
0.712075,-0.084125,0.7062
0.708775,-0.08275,0.7039
0.7069667,-0.0862,0.6978
0.71066,-0.0913,0.69604
0.7177,-0.094425,0.688775
0.7183,-0.09325,0.69075
0.7160333,-0.0914,0.6982
0.7159,-0.09128,0.70504
0.7129,-0.093575,0.70615
0.70965,-0.09545,0.7033
0.7098,-0.0958,0.7008333
0.710025,-0.092875,0.702425
0.708225,-0.089025,0.70255
0.70818,-0.08938,0.7076
0.712825,-0.0896,0.711275
0.71635,-0.089825,0.703575
0.7157333,-0.0872333,0.6927
0.716175,-0.08495,0.690925
0.71718,-0.08248,0.69002
0.715875,-0.08255,0.688975
0.7164667,-0.0873333,0.6902333
0.719725,-0.0929,0.695625
0.72105,-0.095275,0.698675
0.7237,-0.093125,0.690425
0.72205,-0.090025,0.69265
0.7185,-0.087575,0.687475
0.714825,-0.086275,0.691675
0.715125,-0.08755,0.69595
0.71275,-0.086825,0.701125
0.712275,-0.086475,0.705725
0.7137,-0.0839,0.70585
0.7159333,-0.0840167,0.6993167
0.71745,-0.085675,0.69395
0.71415,-0.08835,0.697975
0.7137,-0.0895,0.700425
0.7131,-0.088825,0.704925
0.717,-0.089425,0.70665
0.720375,-0.0902,0.704775
0.72235,-0.0897,0.6893
0.71935,-0.090175,0.679025
0.7188,-0.089425,0.675825
0.715075,-0.089175,0.690675
0.715625,-0.09,0.70585
0.7171,-0.090225,0.700825
0.7146,-0.09015,0.69625
0.7168,-0.08985,0.695625
0.715675,-0.088425,0.6937
0.7185,-0.089525,0.69775
0.719225,-0.0894,0.690675
0.719225,-0.08885,0.69005
0.7204,-0.0903,0.692275
0.71745,-0.0925,0.70255
0.7132,-0.09385,0.69975
0.710075,-0.0946,0.693075
0.7113,-0.094725,0.694475
0.713575,-0.091525,0.7018
0.716425,-0.08795,0.703475
0.715525,-0.089175,0.704375
0.715625,-0.0913,0.70015
0.713375,-0.09195,0.696625
0.7142667,-0.0944333,0.6977333
0.7125,-0.09386,0.70258
0.71145,-0.0926,0.70355
0.7145333,-0.0945667,0.701
0.7167143,-0.0961429,0.6984857
0.7194,-0.0958667,0.6930333
0.71868,-0.09278,0.69454
0.7176,-0.09065,0.6919
0.7177667,-0.0885333,0.6883667
0.7176286,-0.0899,0.6948571
0.714625,-0.094225,0.70445
0.713425,-0.09475,0.704875
0.713025,-0.09205,0.69875
0.7147,-0.0927,0.6953
0.71775,-0.09,0.69165
0.71925,-0.0881,0.690975
0.7199,-0.085525,0.691975
0.717825,-0.0855,0.691725
0.718975,-0.088325,0.695825
0.719975,-0.0911,0.6973
0.720025,-0.093225,0.6923
0.7211333,-0.0936667,0.6877333
0.72186,-0.0925,0.6875
0.721725,-0.09145,0.692125
0.72205,-0.090225,0.6942
0.71935,-0.0905,0.694175
0.718425,-0.091675,0.69
0.7183,-0.090275,0.68765
0.7221,-0.0898,0.6892667
0.723925,-0.088475,0.691475
0.725075,-0.0873,0.68995
0.7232,-0.087825,0.685925
0.721125,-0.088625,0.6875
0.722775,-0.089825,0.685975
0.72365,-0.092075,0.69295
0.72435,-0.091,0.68785
0.72245,-0.0904,0.69025
0.721225,-0.091475,0.691225
0.720325,-0.08885,0.686725
0.721375,-0.0894,0.6921
0.72005,-0.0893,0.692525
0.718375,-0.0916,0.69505
0.719225,-0.094525,0.701075
0.72105,-0.091775,0.69305
0.72045,-0.09075,0.68945
0.71875,-0.0891,0.691525
0.718475,-0.08885,0.69305
0.7183,-0.0878,0.691175
0.7166,-0.089525,0.6951
0.719325,-0.091225,0.7
0.716425,-0.090575,0.699975
0.71435,-0.09015,0.700175
0.716025,-0.092775,0.6986
0.715125,-0.0918,0.69345
0.716675,-0.09155,0.695925
0.715375,-0.08865,0.696075
0.718225,-0.0899,0.69495
0.7175,-0.090325,0.696525
0.7163,-0.0894,0.695175
0.717925,-0.0897,0.696175
0.71775,-0.08935,0.693975
0.7164667,-0.0896333,0.6932
0.71615,-0.0914,0.6958
0.71635,-0.0911,0.6956
0.7150571,-0.0911286,0.6995714
0.7176,-0.0905,0.69485
0.714775,-0.090875,0.696675
0.7150333,-0.0921333,0.6979667
0.7143,-0.09,0.6979
0.715075,-0.0888125,0.698075
0.7153667,-0.0894333,0.6925
0.71512,-0.09022,0.69564
0.716225,-0.092025,0.699325
0.71765,-0.097,0.701825
0.718,-0.09265,0.692825
0.7139,-0.091725,0.6946
0.7152,-0.0939333,0.7016333
0.71328,-0.0942,0.69722
0.711425,-0.092775,0.7016
0.7131571,-0.0924143,0.7039286
0.71615,-0.091475,0.699675
0.71452,-0.09094,0.70048
0.7149,-0.090325,0.6944
0.7102333,-0.0892,0.6935667
0.712025,-0.09015,0.6992
0.71546,-0.09514,0.70696
0.716,-0.0971,0.6985667
0.716025,-0.0974,0.6933
0.71355,-0.09305,0.690275
0.71242,-0.09048,0.69518
0.7147667,-0.0899667,0.6964333
0.7135,-0.09075,0.70065
0.71275,-0.09185,0.704925
0.71055,-0.091175,0.706925
0.712,-0.09065,0.699725
0.7152,-0.0908,0.69765
0.7197,-0.089725,0.697675
0.7191,-0.089525,0.7031
0.7155,-0.09055,0.70455
0.711875,-0.091775,0.702075
0.710575,-0.09155,0.6935
0.709375,-0.09075,0.690875
0.711975,-0.091,0.69245
0.718125,-0.090675,0.692225
0.71935,-0.08945,0.6946
0.718675,-0.089075,0.697475
0.717075,-0.0906,0.700025
0.717575,-0.090575,0.698675
0.716525,-0.090025,0.69875
0.7155,-0.088975,0.696125
0.7138,-0.089275,0.693575
0.714825,-0.0885,0.690175
0.717725,-0.089775,0.6935
0.717775,-0.089925,0.69385
0.716475,-0.090775,0.7014
0.71745,-0.0914,0.70135
0.717475,-0.09295,0.69985
0.714875,-0.08915,0.695275
0.713325,-0.08775,0.693925
0.715575,-0.087,0.69445
0.716425,-0.08845,0.70015
0.71745,-0.089175,0.698975
0.714825,-0.087825,0.7001
0.713925,-0.08905,0.696875
0.7166,-0.088675,0.692625
0.72155,-0.095075,0.6989
0.718075,-0.093,0.70085
0.716675,-0.09265,0.6955
0.712575,-0.09025,0.69245
0.710675,-0.09,0.695025
0.7132,-0.0899,0.696925
0.7140333,-0.0892667,0.6965667
0.71346,-0.08766,0.70078
0.71685,-0.090825,0.7077
0.7175,-0.0921333,0.7027667
0.716225,-0.091025,0.69625
0.71796,-0.08952,0.68816
0.71685,-0.08995,0.6905
0.71685,-0.088925,0.69115
0.717325,-0.0863,0.69795
0.7162,-0.0896,0.7028667
0.716925,-0.08965,0.703825
0.71574,-0.08782,0.6972
0.717,-0.0881333,0.6971
0.7182,-0.087275,0.6957
0.717475,-0.086575,0.696425
0.716225,-0.086825,0.69365
0.71925,-0.088775,0.694625
0.71985,-0.090825,0.692075
0.7182,-0.09205,0.6916
0.7179,-0.09205,0.692625
0.7208,-0.0911,0.688675
0.721425,-0.092025,0.688175
0.724375,-0.0938,0.687775
0.7215,-0.092025,0.696
0.72325,-0.093625,0.702175
0.713575,-0.089225,0.69045
0.71885,-0.0897,0.692225
0.72205,-0.0933,0.69595
0.72365,-0.0898,0.686975
0.721725,-0.0853,0.68005
0.71795,-0.089125,0.68305
0.717475,-0.0897,0.6897
0.720575,-0.094825,0.704125
0.7201,-0.0973,0.7111
0.7210857,-0.0974429,0.7012143
0.7188,-0.0921,0.686825
0.717275,-0.0886,0.6858
0.718975,-0.087925,0.6864
0.722275,-0.084675,0.6938
0.722825,-0.082325,0.696175
0.71965,-0.081325,0.6969
0.7234,-0.082725,0.68445
0.721575,-0.0869,0.68475
0.7204,-0.0873,0.6906
0.7200286,-0.0897,0.6956429
0.719375,-0.093225,0.700175
0.7222667,-0.0927,0.6887
0.72558,-0.09178,0.68456
0.7253,-0.0888,0.68115
0.72015,-0.085375,0.6836
0.72175,-0.0858,0.6921
0.72235,-0.0883,0.698825
0.7227,-0.08795,0.6949
0.719775,-0.085175,0.687625
0.7218667,-0.0848667,0.6876
0.72414,-0.08492,0.69106
0.726575,-0.0856,0.698125
0.726325,-0.087325,0.6946
0.720625,-0.086625,0.692725
0.723175,-0.0871,0.691
0.71965,-0.0875,0.68915
0.7221667,-0.0848,0.6864
0.720925,-0.081025,0.68315
0.72312,-0.08132,0.68802
0.7266667,-0.0851333,0.6864333
0.72915,-0.086175,0.685025
0.727,-0.08675,0.682825
0.72685,-0.088,0.682975
0.724025,-0.0855,0.6817
0.72515,-0.083375,0.68835
0.7246,-0.08245,0.6907
0.725225,-0.083175,0.691775
0.7243,-0.083125,0.690575
0.721475,-0.082875,0.688375
0.719225,-0.0831,0.686375
0.7192,-0.082975,0.68605
0.725725,-0.084025,0.6918
0.729925,-0.085375,0.70065
0.727425,-0.085125,0.69785
0.72245,-0.084825,0.689225
0.72485,-0.0843,0.681975
0.7264333,-0.0808667,0.6768667
0.7239,-0.0828,0.67565
0.7208,-0.0798286,0.6848286
0.722075,-0.0859,0.704625
0.726625,-0.088775,0.6976
0.7265,-0.085175,0.681025
0.72755,-0.08495,0.681525
0.7229,-0.0900714,0.6841143
0.72234,-0.06994,0.69644
0.718475,-0.085625,0.697425
0.71715,-0.0833,0.6943
0.717925,-0.0789,0.691125
0.72015,-0.079675,0.699475
0.7251,-0.07755,0.695625
0.72305,-0.07595,0.692825
0.7226,-0.078525,0.6891
0.7208,-0.08335,0.693275
0.721075,-0.085225,0.691
0.722225,-0.0845,0.688125
0.7193,-0.082925,0.691
0.720925,-0.083875,0.695525
0.72365,-0.084975,0.691975
0.7219,-0.083525,0.6876
0.7226,-0.08165,0.6819
0.7211,-0.08205,0.68305
0.717575,-0.082225,0.68805
0.714775,-0.0818,0.701175
0.717225,-0.08275,0.704675
0.71855,-0.09025,0.705875
0.718275,-0.09195,0.7001
0.71655,-0.092225,0.6998
0.717175,-0.089175,0.69375
0.7158,-0.0893667,0.6902333
0.71436,-0.09294,0.69644
0.7151,-0.092925,0.698325
0.715025,-0.092425,0.69845
0.714775,-0.091175,0.7024
0.7156,-0.0884667,0.6996
0.71488,-0.08702,0.69622
0.71435,-0.088175,0.696575
0.717025,-0.093025,0.70025
0.7182,-0.0931,0.7011667
0.71908,-0.09166,0.69862
0.71765,-0.088725,0.6935
0.713975,-0.08745,0.6934
0.713775,-0.08805,0.696575
0.7149333,-0.0895,0.6969
0.714325,-0.090575,0.70235
0.7172,-0.092725,0.698275
0.7132,-0.08985,0.698375
0.7125,-0.0875,0.701275
0.717025,-0.0874,0.690125
0.72015,-0.087075,0.685675
0.72055,-0.088325,0.698425
0.7165,-0.08935,0.696925
0.719775,-0.09095,0.700275
0.715575,-0.09025,0.6995
0.71685,-0.08805,0.6922
0.7169,-0.0875,0.689475
0.71795,-0.08955,0.691375
0.7193,-0.093025,0.6955
0.7180625,-0.0924625,0.6953625
0.71795,-0.08935,0.69525
0.71705,-0.088375,0.6975
0.7183,-0.08865,0.69745
0.7186,-0.08915,0.6955333
0.718075,-0.086775,0.692475
0.714525,-0.08005,0.695875
0.716725,-0.08135,0.71465
0.72105,-0.092825,0.6776
0.7197,-0.093925,0.6858
0.72575,-0.097725,0.696425
0.720575,-0.092825,0.699
0.718675,-0.089575,0.687575
0.721675,-0.088875,0.684625
0.7215,-0.09,0.691275
0.72395,-0.092075,0.6933
0.72355,-0.09285,0.69815
0.723525,-0.093825,0.692525
0.720025,-0.0888,0.6845
0.72325,-0.0874,0.685125
0.722525,-0.08795,0.6904
0.724725,-0.0863,0.6884
0.72265,-0.087375,0.693875
0.7219,-0.089175,0.689575
0.71965,-0.089025,0.6899
0.72105,-0.0902,0.69325
0.72325,-0.0903,0.694775
0.7255333,-0.0892667,0.6890333
0.72396,-0.08844,0.68368
0.7233,-0.089275,0.688725
0.724475,-0.0911,0.691075
0.7245,-0.09205,0.6924
0.7241333,-0.0928667,0.6885333
0.7221,-0.0934,0.6835
0.7244143,-0.0923429,0.6797429
0.72738,-0.09054,0.68998
0.7266667,-0.0878333,0.6855667
0.72485,-0.090675,0.6907
0.72272,-0.09046,0.68844
0.7239667,-0.0879333,0.685
0.72552,-0.0862,0.69114
0.725025,-0.08585,0.68795
0.724875,-0.085725,0.682775
0.725825,-0.087825,0.68135
0.7265,-0.0893667,0.684
0.725525,-0.088775,0.6869
0.7265,-0.089575,0.6897
0.7276,-0.089075,0.684325
0.725775,-0.0899,0.680475
0.72545,-0.091225,0.6872
0.725825,-0.091875,0.68665
0.724075,-0.0899,0.6885
0.723,-0.09195,0.689175
0.723925,-0.095125,0.691625
0.72615,-0.09405,0.6864
0.72615,-0.091675,0.684225
0.72585,-0.0916,0.691475
0.7226,-0.089625,0.69225
0.7219,-0.0891,0.6869
0.7216,-0.09025,0.684025
0.720425,-0.090975,0.689775
0.72095,-0.0903,0.696625
0.721175,-0.08885,0.69625
0.72215,-0.089325,0.69395
0.722075,-0.0897,0.68775
0.721075,-0.08915,0.68975
0.721925,-0.09075,0.697375
0.721925,-0.09015,0.692275
0.720025,-0.08765,0.692125
0.719,-0.089225,0.686675
0.720575,-0.089825,0.688775
0.723575,-0.091175,0.692025
0.723325,-0.0894,0.692225
0.721,-0.088375,0.690625
0.720375,-0.088975,0.68985
0.72065,-0.090375,0.689725
0.720875,-0.090625,0.6923
0.722775,-0.0902,0.692875
0.72075,-0.08805,0.687325
0.719825,-0.087075,0.69
0.721725,-0.0886,0.69455
0.721725,-0.089725,0.694575
0.72145,-0.0904,0.691075
0.720675,-0.08975,0.6907
0.7208,-0.0888,0.6929
0.71884,-0.08786,0.69528
0.7192,-0.087475,0.690375
0.7196,-0.0888,0.6888
0.720775,-0.089375,0.691225
0.7212,-0.0931333,0.6972667
0.72184,-0.09348,0.69878
0.722225,-0.091275,0.69295
0.72185,-0.089275,0.6872
0.718075,-0.087625,0.687325
0.7181,-0.0859333,0.6912667
0.719,-0.0871333,0.6943
0.7209167,-0.0907167,0.6940333
0.719,-0.0917333,0.6940667
0.718375,-0.09015,0.695075
0.7191,-0.0887,0.6954
0.72035,-0.0886667,0.69565
0.7212,-0.088925,0.6889
0.7191,-0.0874,0.6899
0.719575,-0.08985,0.6916
0.7206,-0.0901667,0.6937333
0.72006,-0.09086,0.69668
0.719525,-0.089625,0.689425
0.71985,-0.089075,0.688425
0.72165,-0.089525,0.69115
0.7198,-0.0907,0.6925
0.719425,-0.09105,0.6931
0.723925,-0.088825,0.689725
0.725525,-0.08975,0.685975
0.7212,-0.08725,0.694225
0.71335,-0.08675,0.694
0.7136,-0.08955,0.68995
0.7227,-0.089925,0.692725
0.726925,-0.0925,0.699675
0.722975,-0.090225,0.694425
0.7242,-0.092575,0.688625
0.72055,-0.090275,0.6899
0.7221,-0.088175,0.687325
0.723,-0.0887,0.690075
0.7224,-0.08825,0.69135
0.724975,-0.0896,0.69485
0.721,-0.087325,0.69215
0.7199,-0.091,0.6924
0.71845,-0.09245,0.689275
0.71795,-0.09175,0.686525
0.7214,-0.088725,0.69135
0.722275,-0.0866,0.6971
0.721675,-0.085675,0.693025
0.720475,-0.0886,0.687325
0.7185,-0.0913,0.689175
0.71855,-0.090625,0.693625
0.71815,-0.08985,0.699075
0.720825,-0.09015,0.69745
0.7285,-0.0908,0.697225
0.7296667,-0.0902,0.6877333
0.72445,-0.08755,0.68605
0.7184714,-0.0848143,0.6796286
0.719,-0.0942,0.69245
0.71725,-0.09675,0.70315
0.717825,-0.091725,0.689575
0.7189,-0.0922,0.6910333
0.7203,-0.09236,0.68964
0.722025,-0.0917,0.694975
0.723175,-0.09245,0.696325
0.720875,-0.09215,0.693325
0.717275,-0.090125,0.69025
0.719975,-0.088425,0.6891
0.7221,-0.08945,0.69355
0.722625,-0.0911,0.69465
0.721975,-0.09245,0.694175
0.7217,-0.09235,0.6874
0.7208667,-0.0933333,0.6895667
0.71996,-0.09318,0.69434
0.720925,-0.0918,0.693625
0.7222667,-0.0933333,0.6933333
0.7185,-0.09135,0.6885
0.717175,-0.08975,0.6876
0.71915,-0.08945,0.6927
0.72025,-0.090375,0.695525
0.72125,-0.093075,0.698875
0.723275,-0.095075,0.69435
0.721425,-0.091525,0.68585
0.72125,-0.0896,0.6853
0.719225,-0.0881,0.69265
0.719775,-0.08915,0.694225
0.7214,-0.0927,0.692275
0.71825,-0.09545,0.692175
0.7179,-0.093675,0.69355
0.71895,-0.091925,0.699
0.7179,-0.09025,0.6935
0.7194,-0.090325,0.692775
0.72065,-0.091225,0.690175
0.720625,-0.09155,0.695925
0.720025,-0.09075,0.696675
0.72055,-0.09155,0.6944
0.71965,-0.091575,0.689475
0.7197,-0.09055,0.68875
0.7223,-0.0926,0.692125
0.72165,-0.093725,0.6929
0.72025,-0.092625,0.69185
0.720975,-0.0911,0.689725
0.72205,-0.09025,0.692125
0.72375,-0.090125,0.69275
0.72155,-0.090425,0.691675
0.720125,-0.089475,0.6882
0.72095,-0.0904,0.68635
0.72185,-0.091575,0.6904
0.722825,-0.09185,0.69345
0.7208,-0.093125,0.694475
0.721975,-0.094725,0.691175
0.722275,-0.0941,0.689525
0.7218,-0.092475,0.689625
0.72205,-0.09095,0.691275
0.722625,-0.09075,0.69045
0.724825,-0.0916,0.68895
0.7249667,-0.0892,0.6863333
0.72426,-0.0905,0.68994
0.72625,-0.09485,0.68965
0.72565,-0.0952,0.68585
0.726075,-0.091775,0.682075
0.7265667,-0.092,0.6848
0.7249,-0.0909,0.6918
0.7270286,-0.0909143,0.6836143
0.725125,-0.092425,0.68655
0.724775,-0.093075,0.68615
0.7242,-0.09565,0.68825
0.7255,-0.0961,0.6864
0.7278,-0.0930778,0.6874778
0.73005,-0.0869,0.67875
0.7293,-0.0908,0.687325
0.726625,-0.08995,0.6811
0.730525,-0.089425,0.6773
0.732025,-0.0911,0.6761
0.730775,-0.0941,0.680475
0.7337,-0.093425,0.6786
0.734475,-0.093125,0.679075
0.733025,-0.092775,0.67635
0.730725,-0.093,0.678825
0.730525,-0.092575,0.677875
0.7298333,-0.0901333,0.6750333
0.729425,-0.089825,0.677175
0.7309,-0.0894,0.679625
0.733275,-0.090625,0.676875
0.73306,-0.09238,0.67564
0.7328333,-0.0928667,0.6737
0.729775,-0.093375,0.682
0.72935,-0.094525,0.6867
0.7313,-0.09185,0.6877
0.72955,-0.090425,0.68785
0.72695,-0.091775,0.68525
0.724475,-0.0946,0.6809
0.727525,-0.0951,0.674975
0.7278,-0.0921,0.677325
0.7292,-0.093975,0.688325
0.7298,-0.0955,0.6945
0.726925,-0.09455,0.6905
0.72715,-0.0925,0.6839
0.726375,-0.091475,0.68465
0.72465,-0.088625,0.6836
0.72505,-0.08825,0.681125
0.724275,-0.090925,0.6823
0.72505,-0.093875,0.689775
0.72895,-0.09645,0.69805
0.731675,-0.09685,0.694025
0.729375,-0.094775,0.685425
0.7267333,-0.0906667,0.6714
0.72452,-0.08498,0.6712
0.722525,-0.0812,0.6853
0.723025,-0.0844,0.69
0.720575,-0.09,0.69845
0.7247667,-0.091,0.6919667
0.72934,-0.09028,0.68452
0.726075,-0.0888,0.6822
0.7228,-0.090275,0.687225
0.72315,-0.09295,0.68815
0.7243833,-0.0931333,0.6896667
0.7277167,-0.08985,0.68615
0.7285,-0.08965,0.6823
0.72575,-0.08945,0.68035
0.7247667,-0.0874,0.683
0.72424,-0.08688,0.6892
0.725125,-0.08755,0.6927
0.724425,-0.09025,0.68915
0.721875,-0.08985,0.6873
0.722175,-0.091675,0.692325
0.720875,-0.092225,0.692575
0.722175,-0.0918,0.69225
0.725925,-0.092125,0.6944
0.72455,-0.09075,0.685175
0.723625,-0.093225,0.689975
0.726375,-0.09225,0.68885
0.7262,-0.0892667,0.6838
0.724375,-0.087025,0.6852
0.7231,-0.0876,0.6874
0.7239375,-0.088825,0.687875
0.7227667,-0.0928,0.6880333
0.720625,-0.093075,0.688525
0.721625,-0.0933,0.691125
0.722,-0.09295,0.69195
0.7231333,-0.0918,0.6951333
0.722175,-0.089225,0.690275
0.72295,-0.089225,0.687925
0.724175,-0.090325,0.68885
0.724625,-0.090175,0.697775
0.721475,-0.089175,0.686225
0.72045,-0.0913,0.6883
0.720875,-0.091175,0.68415
0.724225,-0.09095,0.683775
0.72345,-0.090325,0.686725
0.7237,-0.09235,0.693875
0.72165,-0.0927,0.6929
0.721975,-0.094425,0.692975
0.721975,-0.0924,0.688675
0.7227,-0.0902,0.68995
0.723025,-0.089725,0.688925
0.723625,-0.0908,0.694025
0.72245,-0.09155,0.679875
0.726675,-0.09405,0.685875
0.720875,-0.09135,0.69515
0.722925,-0.09105,0.689775
0.722925,-0.091525,0.691175
0.722775,-0.089625,0.686775
0.721975,-0.08735,0.6863
0.722475,-0.088825,0.689775
0.720325,-0.08915,0.68905
0.7201,-0.0926,0.6971
0.72435,-0.0946,0.69585
0.722525,-0.091475,0.68745
0.7256,-0.0908,0.6861
0.722075,-0.0887,0.689525
0.72025,-0.088375,0.69045
0.722525,-0.091075,0.6911
0.721725,-0.0937,0.691075
0.7194667,-0.0921333,0.6939
0.71984,-0.09084,0.69266
0.720125,-0.090725,0.694725
0.721625,-0.0888,0.686175
0.72435,-0.089575,0.69105
0.7241667,-0.0908333,0.6911333
0.7236,-0.0893,0.6896
0.7218,-0.0909375,0.6919125
0.7217,-0.090675,0.69215
0.722425,-0.090025,0.686525
0.7257,-0.0880667,0.6847
0.724,-0.08746,0.68564
0.724425,-0.090375,0.690875
0.72455,-0.092025,0.689575
0.7231667,-0.0922333,0.6892667
0.7224,-0.090425,0.68855
0.7224,-0.08855,0.68965
0.72466,-0.0883,0.68912
0.7236667,-0.0871333,0.6847
0.72295,-0.0875,0.6866
0.72565,-0.0883,0.688675
0.725525,-0.08885,0.6936
0.7258,-0.09062,0.69002
0.7256,-0.0911667,0.6857667
0.725725,-0.090675,0.68275
0.724075,-0.088375,0.6872
0.7233,-0.0878,0.6889
0.7253143,-0.0866286,0.6895286
0.726475,-0.088425,0.68455
0.724975,-0.08805,0.68665
0.7239,-0.086375,0.688225
0.725775,-0.0872,0.688125
0.7292,-0.085375,0.682575
0.73115,-0.0867,0.68085
0.73,-0.088475,0.6844
0.726675,-0.089825,0.6844
0.725825,-0.09015,0.684325
0.7279,-0.093075,0.6853
0.7273,-0.093475,0.684125
0.7278,-0.0911,0.684375
0.727925,-0.0894,0.68425
0.726675,-0.086975,0.681625
0.729625,-0.085325,0.68305
0.7295,-0.082675,0.6826
0.7301,-0.085225,0.6861
0.73015,-0.0886,0.6819
0.72695,-0.088,0.68085
0.72685,-0.08815,0.6824
0.73005,-0.087625,0.6789
0.7295,-0.08985,0.681775
0.72975,-0.092275,0.665075
0.708175,-0.0824,0.65555
0.73205,-0.0935,0.692175
0.727425,-0.09465,0.73855
0.7405,-0.094175,0.716475
0.723275,-0.075525,0.6192
0.74535,-0.09795,0.6414
0.737025,-0.09685,0.6875
0.725475,-0.094525,0.678175
0.7315,-0.1009,0.684825
0.73275,-0.0995,0.6841
0.72729,-0.1003,0.69005
0.7287,-0.0982,0.69625
0.728575,-0.097425,0.697475
0.7261,-0.0956333,0.6789
0.72958,-0.09546,0.6782
0.728575,-0.094725,0.68135
0.7218,-0.094775,0.686775
0.722925,-0.0998,0.68805
0.7218,-0.0990667,0.6902333
0.7211,-0.0957,0.69075
0.72688,-0.09546,0.68932
0.724425,-0.0944,0.6831
0.7172333,-0.0912333,0.6864
0.714725,-0.0902,0.696525
0.724675,-0.095125,0.691975
0.709525,-0.090875,0.692275
0.720075,-0.095575,0.69955
0.71685,-0.09265,0.699875
0.722225,-0.095225,0.695325
0.7183,-0.0927,0.688
0.71415,-0.09215,0.68865
0.721075,-0.094225,0.688725
0.722725,-0.09465,0.690675
0.7073,-0.090825,0.687375
0.7040333,-0.0907667,0.6936
0.73438,-0.09714,0.69222
0.721175,-0.09925,0.694425
0.715175,-0.1032,0.698125
0.7166,-0.100875,0.70565
0.71455,-0.096,0.697325
0.714825,-0.093175,0.6956
0.712675,-0.09515,0.694325
0.71335,-0.09395,0.699425
0.7171,-0.097525,0.703525
0.71295,-0.093875,0.699925
0.71995,-0.0964,0.69325
0.729075,-0.099425,0.6957
0.72385,-0.1004,0.6953
0.7192,-0.109325,0.714325
0.703275,-0.107225,0.709525
0.72155,-0.112175,0.688375
0.726275,-0.11005,0.68175
0.725775,-0.10095,0.66625
0.714425,-0.091725,0.7048
0.719275,-0.08715,0.69895
0.713225,-0.0862,0.691575
0.709325,-0.0936,0.694325
0.705975,-0.095225,0.6903
0.712875,-0.094125,0.68085
0.723375,-0.094,0.650525
0.725725,-0.0979,0.7336
0.718825,-0.09135,0.725225
0.713675,-0.0974,0.73085
0.704125,-0.1168,0.754075
0.729625,-0.1172,0.698825
0.7389667,-0.0959,0.6914
