accx,accy,accz
1.01856,0.00322,0.09736
0.991775,0.030225,0.05155
0.97125,0.026325,0.09205
0.966425,0.018875,0.098175
0.963975,0.014275,0.10265
0.969575,0.0192,0.099725
0.968275,0.024075,0.07795
0.9735,0.024125,0.05025
0.979925,0.03475,0.078175
0.9848,0.038475,0.05445
0.982175,0.03905,0.07415
0.979325,0.0412,0.079475
0.9783,0.0366,0.07215
0.9797333,0.0381667,0.0593
0.97925,0.03775,0.0506
0.98255,0.0419,0.0424
0.97715,0.0429,0.05485
0.9654,0.0467,0.0661
0.96748,0.04064,0.04486
0.964325,0.0338,0.04375
0.98425,0.0212,0.028825
0.9917333,0.0214333,0.009
0.97812,0.01842,0.02536
0.96685,0.016675,0.00345
0.98455,0.01435,-0.017875
0.997525,0.009775,-0.01715
0.996475,0.0102,-0.018225
0.995225,0.015775,-0.02715
1.00125,0.0149,-0.05385
1.001875,0.013525,-0.063325
1.000225,0.022075,-0.106275
0.9733667,0.0407667,-0.1618667
0.97622,0.04926,-0.20652
0.9438,0.07555,-0.24575
0.91055,0.081775,-0.211725
0.91385,0.096975,-0.2339
0.9294333,0.1040667,-0.2670667
0.94532,0.16052,-0.24944
0.978925,0.234775,-0.064375
0.979,0.2199333,0.1308
0.93928,0.07248,0.2428
0.97455,0.046925,0.243775
1.07275,0.0141,0.12845
1.09878,0.02272,0.07636
0.90876,0.12474,0.06334
0.8301333,0.2659667,0.0233667
0.78265,0.288875,-0.005825
0.832025,0.21195,-0.0401
0.89865,0.173975,0.026125
0.914825,0.20845,0.0786
0.956075,0.225125,-0.001325
0.992875,0.255875,-0.10065
1.001425,0.22765,-0.051725
0.9705,0.232325,-0.084725
0.77655,0.228225,-0.255225
0.59205,0.167425,-0.29585
0.696375,0.060625,-0.405925
0.9644,0.01395,-0.421275
0.9322,0.12105,-0.0084
0.7747,0.133775,0.151325
0.559025,0.2046,-0.037525
0.554175,0.102825,-0.20875
0.8179,0.017425,-0.055125
0.986525,-0.008975,0.0934
0.997575,-0.02335,0.132075
0.96195,-7.5e-05,0.109175
0.881575,0.03055,-0.039325
0.85325,0.06145,-0.099375
0.847875,0.115075,-0.186275
0.796675,0.188225,-0.343875
0.835525,0.243475,-0.422375
0.88115,0.233725,-0.3869
0.8821,0.2131,-0.2856333
0.78012,0.21726,-0.35718
0.687325,0.26055,-0.6094
0.7098,0.3237,-0.73155
0.853525,0.36165,-0.566325
0.9789333,0.3966667,-0.4738
1.05772,0.42326,-0.43476
1.0312,0.332875,-0.430275
1.019075,0.224125,-0.53095
1.097375,0.157525,-0.500025
1.089175,0.186,-0.3317
1.0424667,0.2205,-0.2672
1.0715,0.26038,-0.34444
1.075975,0.351675,-0.29805
1.0262,0.395375,-0.247425
1.0212,0.3725333,-0.2685333
0.99206,0.37464,-0.26708
0.99165,0.3746,-0.16685
0.9622,0.364625,-0.08505
0.95455,0.345875,-0.0229
0.985225,0.320525,-0.03045
1.0059667,0.2733667,-0.0545667
0.97118,0.25462,0.03662
0.917,0.274575,0.015675
0.9037,0.2608333,-0.1244667
0.938,0.2128667,-0.1881
1.00036,0.18984,-0.08612
1.1704,0.21738,0.25172
1.228925,0.283,0.5405
1.1864,0.261675,0.4449
1.06345,0.3123,0.282
1.04975,0.343125,0.0326
0.9972833,0.2569167,0.2274833
0.867125,0.186525,0.60405
0.792425,0.142975,0.731525
0.6712667,0.1627333,0.6413667
0.62124,0.15136,0.44528
0.7213,0.097325,0.432725
0.7964,0.075,0.513
0.84325,0.088375,0.591225
0.8739,0.0584667,0.5877333
0.873,0.0466333,0.5543
0.9031286,-0.0099143,0.3980429
0.9151333,-0.0874,0.3681333
0.993475,-0.1518,0.49215
0.9961333,-0.0450333,0.4255333
0.8713,0.05246,0.31506
0.788525,0.100975,0.308525
0.81595,0.0851,0.50115
0.850925,0.024925,0.732275
0.8293,0.0142667,0.7678
0.799275,-0.012625,0.7901
0.72666,-0.05212,0.77832
0.725825,-0.111325,0.740775
0.785325,-0.130575,0.65035
0.76085,-0.133075,0.5923
0.7703,-0.144525,0.628975
0.808325,-0.12,0.538775
0.8093,-0.08385,0.531925
0.783325,-0.0457,0.575275
0.7945,-0.0111,0.59185
0.85635,0.0126,0.573875
0.913675,0.0105,0.550425
0.87675,0.01915,0.587375
0.81495,0.027625,0.615325
0.791575,0.025175,0.545875
0.7521,0.016125,0.538325
0.7592,0.00185,0.62175
0.7824,-0.0311,0.654375
0.797425,-0.032875,0.650175
0.810125,-0.0531,0.631225
0.7619,-0.074075,0.64325
0.7295,-0.075525,0.6206
0.71575,-0.06605,0.615225
0.75445,-0.0743,0.682375
0.772125,-0.07355,0.67485
0.7907,-0.0679,0.65195
0.78745,-0.065375,0.651975
0.778125,-0.06165,0.6429
0.772425,-0.0539,0.62385
0.771475,-0.047125,0.6337
0.75185,-0.0418,0.613525
0.779475,-0.042525,0.64255
0.777675,-0.05305,0.6552
0.77675,-0.0459,0.635525
0.78185,-0.04785,0.6258
0.78555,-0.04695,0.61235
0.781175,-0.054675,0.6314
0.7735,-0.05585,0.6463
0.774225,-0.066975,0.63485
0.76635,-0.0719,0.6346
0.7599,-0.0738667,0.6422333
0.757775,-0.073725,0.654925
0.7435,-0.0727,0.667525
0.7384667,-0.0694667,0.6670667
0.739925,-0.068325,0.667175
0.74566,-0.0679,0.66436
0.7533,-0.0659,0.6635
0.75665,-0.063425,0.661675
0.75418,-0.06362,0.6623
0.756925,-0.06415,0.65315
0.75945,-0.06355,0.65685
0.7579333,-0.0563667,0.6558667
0.7592,-0.056475,0.66265
0.755875,-0.051975,0.652675
0.7603333,-0.0572333,0.6510667
0.7654,-0.06194,0.64884
0.769125,-0.058775,0.62005
0.768175,-0.05315,0.650725
0.75605,-0.047425,0.665375
0.751875,-0.040775,0.6518
0.754975,-0.0475,0.64615
0.75735,-0.054425,0.642225
0.749375,-0.05835,0.6526
0.749325,-0.052425,0.6583
0.7566333,-0.0533333,0.6482
0.7614,-0.0536667,0.6396667
0.7530167,-0.0524167,0.6732667
0.751425,-0.048575,0.6756
0.75505,-0.0487,0.658425
0.752025,-0.049,0.641475
0.7461667,-0.0486,0.6518667
0.7527,-0.04526,0.63104
0.7633,-0.046125,0.65165
0.763675,-0.05,0.65685
0.746675,-0.052125,0.65
0.74615,-0.063,0.6593
0.74388,-0.07168,0.66832
0.7414,-0.07454,0.66454
0.7376,-0.0732,0.6671333
0.7368,-0.071925,0.675675
0.7413667,-0.0703667,0.6865333
0.7460333,-0.0734167,0.6872
0.7406,-0.071725,0.6883
0.733875,-0.07125,0.6999
0.73325,-0.0811,0.70475
0.73842,-0.0812,0.69434
0.73824,-0.0732,0.66086
0.749175,-0.0635,0.6558
0.7578,-0.0564,0.6569
0.75765,-0.05295,0.6545
0.755725,-0.052725,0.653075
0.7613,-0.0585,0.6591167
0.7634,-0.0594,0.6377
0.75945,-0.0605,0.644775
0.7475,-0.0462667,0.6473
0.7527,-0.04438,0.6161
0.76515,-0.0238,0.6465
0.759075,-0.044225,0.672975
0.7566667,-0.0442333,0.6772
0.75864,-0.05336,0.6579
0.75335,-0.057875,0.648275
0.75265,-0.0506,0.640775
0.7566,-0.04215,0.645775
0.7552333,-0.0426667,0.6636
0.75345,-0.04695,0.66855
0.76596,-0.054,0.65854
0.7592667,-0.0474,0.6494333
0.7573,-0.04254,0.64064
0.7585,-0.0389,0.6396333
0.76225,-0.043925,0.648525
0.76436,-0.04878,0.65662
0.7642,-0.052025,0.65385
0.7599,-0.0519667,0.6539333
0.754725,-0.04695,0.658825
0.7526667,-0.0486333,0.6403
0.75984,-0.04204,0.6554
0.762,-0.045325,0.6616
0.77105,-0.0372,0.68355
0.770375,-0.034725,0.695725
0.7744,-0.039475,0.63385
0.7667,-0.043625,0.616775
0.767425,-0.048925,0.591925
0.7722,-0.046075,0.5743
0.77825,-0.03625,0.585575
0.7809,-0.024325,0.609575
0.782475,-0.0214,0.64375
0.787275,-0.029375,0.647075
0.780875,-0.03685,0.63325
0.7708,-0.036825,0.6184
0.76535,-0.038425,0.63205
0.7672,-0.0397,0.64265
0.76945,-0.039175,0.64895
0.77205,-0.041075,0.64045
0.770975,-0.0436,0.636725
0.77025,-0.04295,0.6385
0.7718,-0.0407,0.6355
0.76885,-0.039775,0.639675
0.76815,-0.04105,0.64675
0.7674,-0.039525,0.6438
0.769525,-0.038875,0.6428
0.770575,-0.038075,0.637825
0.769125,-0.036425,0.636025
0.769825,-0.037875,0.6372
0.7696,-0.042,0.6426667
0.76978,-0.04312,0.64204
0.7692,-0.04215,0.640075
0.77025,-0.038875,0.643075
0.774475,-0.035875,0.628175
0.7734333,-0.0329667,0.6209
0.771175,-0.0338,0.635025
0.76644,-0.03412,0.6471
0.765525,-0.037625,0.64215
0.7663,-0.04185,0.64295
0.768875,-0.041375,0.640825
0.7712333,-0.0411333,0.6335
0.76958,-0.03986,0.63842
0.770925,-0.040575,0.6404
0.775675,-0.0401,0.6407
0.7760333,-0.0344667,0.6420333
0.76995,-0.03115,0.6355
0.766425,-0.029625,0.63225
0.76732,-0.03072,0.63842
0.7691,-0.0333667,0.6415333
0.7678,-0.034275,0.637075
0.770425,-0.03775,0.6421
0.773075,-0.03965,0.644375
0.77685,-0.041675,0.63695
0.7749,-0.03995,0.620825
0.769525,-0.0346,0.6245
0.7712,-0.0324667,0.6308333
0.77254,-0.03254,0.64196
0.770675,-0.03525,0.64285
0.7667,-0.035625,0.6434
0.766825,-0.0355,0.639975
0.76835,-0.037225,0.63685
0.768575,-0.0378,0.640725
0.76995,-0.0355,0.641425
0.769325,-0.035675,0.645325
0.771475,-0.0377,0.643575
0.777025,-0.0374,0.64265
0.77125,-0.03475,0.637075
0.764625,-0.028475,0.62395
0.7671,-0.026425,0.62615
0.771075,-0.035375,0.6329
0.770675,-0.044225,0.6542
0.768675,-0.04375,0.643925
0.767,-0.0409,0.641875
0.764075,-0.038875,0.639975
0.762925,-0.0415,0.637225
0.764575,-0.044375,0.64545
0.76885,-0.044125,0.64565
0.77155,-0.04205,0.64695
0.7704,-0.038625,0.6389
0.765375,-0.0375,0.638175
0.7640333,-0.0380333,0.6360667
0.76722,-0.03956,0.64224
0.7751,-0.04135,0.6481
0.776675,-0.03995,0.6441
0.7765,-0.039,0.63305
0.77485,-0.0394,0.63325
0.77,-0.0384333,0.6302
0.77354,-0.03828,0.63072
0.7736,-0.0335,0.63045
0.7755,-0.03485,0.637575
0.77295,-0.039625,0.641375
0.7749,-0.0421,0.6487667
0.7758,-0.039325,0.649925
0.77558,-0.03508,0.61734
0.77365,-0.03095,0.594025
0.777775,-0.0295,0.610275
0.77855,-0.03135,0.637225
0.780025,-0.03605,0.629375
0.7737333,-0.0404333,0.6314667
0.777025,-0.040875,0.6355
0.780075,-0.040225,0.624825
0.77972,-0.03678,0.62
0.779,-0.036475,0.628175
0.78075,-0.0349,0.6261
0.783925,-0.03755,0.628475
0.77985,-0.037475,0.62175
0.775025,-0.0379,0.62585
0.7802,-0.038425,0.6238
0.7845667,-0.0376333,0.6151
0.78252,-0.03554,0.62508
0.785025,-0.032725,0.62135
0.7808,-0.0355,0.629
0.77818,-0.03548,0.62624
0.7792,-0.0336,0.62766
0.782875,-0.03225,0.620525
0.778375,-0.030975,0.62115
0.7781667,-0.0342,0.6245667
0.77805,-0.0349,0.6165
0.7783143,-0.0366571,0.6265286
0.7777,-0.03685,0.63665
0.777025,-0.036175,0.637175
0.772575,-0.033375,0.626775
0.77535,-0.0352,0.62465
0.774675,-0.035075,0.6302
0.776975,-0.036175,0.63375
0.7785,-0.034225,0.63025
0.7765,-0.0323,0.6301
0.7762,-0.03752,0.63728
0.7774,-0.0397,0.629825
0.7787,-0.037925,0.625425
0.77995,-0.036525,0.6305
0.7788,-0.031275,0.628025
0.775875,-0.03055,0.627025
0.771975,-0.0322,0.6314
0.774,-0.0337,0.6312667
0.77284,-0.03392,0.63508
0.77185,-0.033575,0.631475
0.776375,-0.033975,0.629775
0.776775,-0.032875,0.6308
0.775175,-0.036175,0.635625
0.774475,-0.037375,0.636125
0.774175,-0.035525,0.626925
0.773375,-0.0355,0.63055
0.7724,-0.0324,0.637575
0.77365,-0.030625,0.63275
0.7736,-0.0337,0.631775
0.77215,-0.03825,0.6364
0.770125,-0.0395,0.64475
0.769025,-0.034775,0.639225
0.769525,-0.03165,0.6377
0.768575,-0.033125,0.64015
0.768875,-0.033425,0.641925
0.77045,-0.03335,0.6378
0.7711,-0.03365,0.636
0.772275,-0.0356,0.6368
0.77235,-0.035125,0.638375
0.770125,-0.034025,0.639775
0.76885,-0.0353,0.645975
0.775325,-0.0371,0.628225
0.775775,-0.0391,0.6271
0.772875,-0.03575,0.63385
0.77415,-0.030975,0.632075
0.77485,-0.0292,0.633075
0.775075,-0.0318,0.63345
0.773025,-0.033125,0.6291
0.772225,-0.0333,0.628725
0.772275,-0.03415,0.6341
0.774775,-0.0346,0.6378
0.776175,-0.03395,0.6298
0.7746,-0.0329333,0.6334667
0.772875,-0.033675,0.63745
0.772225,-0.034825,0.639425
0.7715,-0.0319,0.6341
0.77165,-0.032275,0.630875
0.773,-0.0344,0.6329
0.7751,-0.03502,0.63488
0.7737667,-0.0367333,0.6428333
0.775975,-0.0396,0.632225
0.77585,-0.03795,0.627675
0.776525,-0.033625,0.62045
0.772225,-0.0314,0.611375
0.777875,-0.0333,0.646325
0.774675,-0.032075,0.6434
0.772925,-0.032025,0.640925
0.7699,-0.03145,0.639325
0.768525,-0.0317,0.63735
0.767525,-0.035325,0.637
0.768125,-0.03745,0.636425
0.773225,-0.03825,0.63745
0.774475,-0.037575,0.637275
0.77345,-0.0358,0.634675
0.772225,-0.035725,0.63795
0.77135,-0.036475,0.6387
0.772025,-0.034275,0.62805
0.772525,-0.03225,0.620475
0.774175,-0.036425,0.635025
0.77575,-0.03825,0.643725
0.775075,-0.0368,0.637075
0.77325,-0.0324,0.63085
0.773525,-0.033725,0.632475
0.77025,-0.033175,0.635275
0.773325,-0.036,0.635325
0.774825,-0.035575,0.634325
0.77515,-0.034525,0.632625
0.776725,-0.035025,0.63105
0.774275,-0.0373,0.6341
0.772475,-0.03845,0.6347
0.773775,-0.0375,0.631325
0.772575,-0.03485,0.630525
0.77385,-0.0355,0.63545
0.7734,-0.035575,0.632875
0.773825,-0.036275,0.634575
0.77205,-0.036175,0.63365
0.7726,-0.037525,0.6316
0.77325,-0.036825,0.637225
0.77245,-0.034375,0.635625
0.77385,-0.033375,0.637575
0.7751,-0.03445,0.634125
0.775275,-0.034725,0.628175
0.773,-0.03295,0.6286
0.7738,-0.0374,0.6406
0.775325,-0.0402,0.636725
0.77495,-0.04105,0.63765
0.77495,-0.037525,0.62905
0.7726333,-0.0341,0.627
0.77196,-0.03182,0.62842
0.7737667,-0.0333,0.6345667
0.77598,-0.03592,0.63454
0.7732667,-0.0352,0.6345667
0.77234,-0.03668,0.636
0.77195,-0.0353,0.63515
0.7742667,-0.0358,0.6342667
0.77516,-0.0353,0.63098
0.7779667,-0.0382667,0.6333
0.77615,-0.036475,0.630925
0.77465,-0.036475,0.632925
0.77545,-0.037725,0.632425
0.774025,-0.036275,0.628925
0.775075,-0.0355,0.625975
0.7755,-0.036675,0.6299
0.777975,-0.037825,0.63295
0.777875,-0.036975,0.6316
0.77705,-0.03565,0.629625
0.774275,-0.034025,0.62685
0.77605,-0.035475,0.630075
0.7764,-0.03455,0.63655
0.780325,-0.038,0.6228
0.776475,-0.035775,0.6305
0.7782,-0.03525,0.62695
0.778675,-0.035975,0.627975
0.778575,-0.0379,0.627675
0.778825,-0.0396,0.6286
0.77725,-0.0374,0.6262
0.778425,-0.03715,0.624425
0.7793,-0.0364,0.626275
0.7802,-0.0372,0.630375
0.780575,-0.035975,0.627075
0.78065,-0.034925,0.62595
0.781675,-0.034275,0.6235
0.780925,-0.03615,0.622975
0.780625,-0.03435,0.620425
0.7807,-0.034025,0.62245
0.780825,-0.039975,0.63055
0.783125,-0.04165,0.625325
0.780575,-0.037325,0.622425
0.780525,-0.035625,0.619675
0.782125,-0.032625,0.614925
0.783625,-0.030375,0.611925
0.781925,-0.031875,0.621375
0.78015,-0.03795,0.6305
0.7818,-0.03785,0.622
0.7824,-0.038125,0.62525
0.7823,-0.03635,0.6254
0.7807,-0.03625,0.622925
0.7813333,-0.0358333,0.6183667
0.78174,-0.03664,0.62858
0.779275,-0.039075,0.627925
0.779625,-0.038525,0.6193
0.7791,-0.037875,0.62685
0.776975,-0.036475,0.625375
0.7799,-0.0366,0.62115
0.780825,-0.0379,0.624725
0.78035,-0.0382,0.62855
0.7792667,-0.0360667,0.6271667
0.77786,-0.03488,0.62694
0.7782333,-0.0359,0.6313333
0.77905,-0.0368,0.632375
0.777275,-0.0366,0.62885
0.7764,-0.036975,0.6263
0.776725,-0.03465,0.6253
0.777,-0.036075,0.62385
0.7783,-0.037925,0.623775
0.7767,-0.03825,0.628475
0.775425,-0.038875,0.6385
0.775825,-0.03845,0.640425
0.776825,-0.038175,0.636325
0.776525,-0.037625,0.63085
0.7745,-0.03535,0.63265
0.77485,-0.035125,0.63105
0.7746,-0.03385,0.628525
0.7728,-0.036775,0.63565
0.77525,-0.041175,0.637525
0.776225,-0.041075,0.635075
0.77715,-0.037975,0.63055
0.775875,-0.0339,0.6259
0.775575,-0.032425,0.6288
0.774525,-0.03355,0.628825
0.773075,-0.03755,0.6333
0.773975,-0.037325,0.6346
0.7736,-0.0366,0.63795
0.772825,-0.03555,0.630425
0.7734,-0.03745,0.63505
0.7744333,-0.0390333,0.6356667
0.7754429,-0.0385,0.6310714
0.77425,-0.036325,0.63475
0.77485,-0.03665,0.634475
0.77465,-0.0384,0.63265
0.7729667,-0.0370667,0.6354
0.7741286,-0.0367143,0.6322143
0.7749,-0.0377,0.6311
0.775925,-0.038175,0.630375
0.7748,-0.0359,0.6310333
0.7735,-0.0360667,0.6336333
0.7726333,-0.0358333,0.6377
0.77515,-0.03755,0.633425
0.775625,-0.036775,0.630225
0.77325,-0.034775,0.627925
0.7722,-0.0353,0.6312
0.7749714,-0.0366571,0.635
0.775625,-0.038325,0.633
0.7766,-0.038775,0.63125
0.77335,-0.035775,0.631025
0.77245,-0.0355,0.6351
0.77255,-0.03625,0.63775
0.774625,-0.036825,0.632425
0.773425,-0.0357,0.6281
0.7733333,-0.0343667,0.6341667
0.7738,-0.03535,0.63985
0.7738571,-0.0402429,0.6419
0.7755,-0.0396,0.631975
0.77445,-0.0357,0.6245
0.773725,-0.034225,0.62795
0.774,-0.03255,0.6269
0.7754875,-0.037625,0.63615
0.7731667,-0.0385333,0.6345667
0.7733,-0.03695,0.63665
0.7727857,-0.0351143,0.6324857
0.774,-0.0371667,0.6313333
0.775625,-0.038425,0.63245
0.7761,-0.037975,0.632975
0.774,-0.037375,0.637075
0.7759,-0.03628,0.63352
0.774,-0.0370333,0.6321333
0.772625,-0.0356,0.6285
0.7749,-0.0341,0.623775
0.776,-0.03595,0.630275
0.77695,-0.0382,0.634825
0.777225,-0.037775,0.63605
0.77255,-0.03505,0.631025
0.773675,-0.034725,0.62995
0.77325,-0.0341,0.63085
0.77645,-0.0319,0.6266
0.77465,-0.03165,0.63135
0.775425,-0.0346,0.629025
0.779475,-0.036475,0.62905
0.777225,-0.037775,0.626325
0.773375,-0.037275,0.635675
0.771175,-0.03545,0.6408
0.770475,-0.0344,0.645825
0.773375,-0.0361,0.641075
0.7747,-0.03665,0.631525
0.771125,-0.038875,0.62475
0.767675,-0.041075,0.64115
0.7697333,-0.0407333,0.6471333
0.77642,-0.03866,0.64152
0.7781,-0.0397,0.6385
0.7779,-0.0401333,0.635
0.7694714,-0.0382857,0.6261
0.768975,-0.036,0.629225
0.77215,-0.0364,0.635675
0.774675,-0.037325,0.644675
0.773375,-0.035325,0.64595
0.77275,-0.033625,0.639675
0.771925,-0.034875,0.633625
0.771475,-0.039775,0.63275
0.7672333,-0.0413667,0.6293
0.76816,-0.04068,0.63306
0.77185,-0.03605,0.633
0.77485,-0.03225,0.64175
0.772625,-0.03,0.646875
0.77455,-0.03265,0.6445
0.770375,-0.034025,0.62695
0.764875,-0.039225,0.633825
0.7671,-0.0432333,0.6316
0.76812,-0.04404,0.63278
0.7692667,-0.0411667,0.6378667
0.77062,-0.03626,0.64548
0.7731,-0.036125,0.643225
0.77285,-0.0378,0.63905
0.7707,-0.03795,0.632525
0.770775,-0.038675,0.6338
0.770225,-0.03885,0.635375
0.7696,-0.0389333,0.6379333
0.77088,-0.03854,0.63232
0.76945,-0.0367,0.631475
0.772075,-0.040625,0.63765
0.772875,-0.041375,0.63725
0.7742333,-0.0395667,0.6345667
0.774675,-0.036975,0.63215
0.7733,-0.0339,0.6318
0.771275,-0.034025,0.633175
0.77125,-0.036175,0.62925
0.770325,-0.03905,0.636
0.7688,-0.040075,0.644425
0.7677,-0.040625,0.64595
0.766825,-0.03985,0.644
0.7695,-0.04055,0.641125
0.772875,-0.0415,0.6414
0.773625,-0.041025,0.640825
0.7703,-0.039475,0.63965
0.7732,-0.0375,0.632275
0.771975,-0.035825,0.639
0.7682,-0.03445,0.6348
0.76755,-0.035375,0.63325
0.769275,-0.0373,0.632625
0.7692,-0.039675,0.639075
0.770125,-0.040125,0.639575
0.76965,-0.040025,0.641
0.7686,-0.039475,0.6396
0.769025,-0.0383,0.637225
0.768425,-0.037275,0.63845
0.7686,-0.036425,0.63675
0.7716,-0.037575,0.63775
0.77225,-0.038675,0.6408
0.7697,-0.0381,0.638125
0.76965,-0.038425,0.63955
0.768225,-0.038225,0.641625
0.7684,-0.036825,0.642325
0.767675,-0.03665,0.63685
0.767825,-0.038025,0.638075
0.7681,-0.039325,0.641975
0.76995,-0.04455,0.64705
0.770575,-0.044175,0.643575
0.76995,-0.040675,0.634425
0.76715,-0.037325,0.6339
0.766725,-0.03585,0.636075
0.77,-0.03785,0.63965
0.769075,-0.03955,0.641075
0.7689,-0.04215,0.64235
0.768525,-0.040225,0.6411
0.7672,-0.038225,0.6415
0.7684,-0.039,0.6418
0.769575,-0.039025,0.642225
0.76825,-0.038575,0.638
0.76775,-0.039025,0.639725
0.76905,-0.04075,0.639
0.76835,-0.042525,0.643625
0.7677,-0.0406333,0.6437
0.76856,-0.03902,0.638
0.7699,-0.0396,0.6332
0.771525,-0.04095,0.63575
0.773175,-0.0412,0.6399
0.7703333,-0.0386,0.6373
0.76794,-0.03728,0.63866
0.765975,-0.037825,0.6386
0.767675,-0.0402,0.6393
0.7700333,-0.0400667,0.6409333
0.770675,-0.039125,0.639125
0.77088,-0.03794,0.6388
0.771225,-0.0393,0.63935
0.7691,-0.04,0.6394667
0.7662,-0.04238,0.63968
0.7669,-0.0421667,0.6381
0.770475,-0.042275,0.641175
0.770775,-0.03935,0.639425
0.770125,-0.039475,0.640075
0.77,-0.0403,0.639825
0.770275,-0.0415,0.636025
0.76755,-0.04105,0.633725
0.769275,-0.040975,0.638125
0.769725,-0.04015,0.641725
0.769575,-0.03905,0.645875
0.768775,-0.039475,0.639
0.7675,-0.040825,0.634675
0.76885,-0.042525,0.637125
0.769775,-0.041525,0.640125
0.770975,-0.041125,0.642975
0.77035,-0.040375,0.636475
0.769275,-0.041575,0.6387
0.7689,-0.041725,0.639175
0.76745,-0.0406,0.6385
0.76705,-0.0407167,0.6385667
0.768975,-0.044675,0.6478
0.771675,-0.0454,0.644425
0.772175,-0.042675,0.636425
0.769475,-0.04105,0.6339
0.766225,-0.038325,0.633
0.768975,-0.039725,0.63495
0.768675,-0.0416,0.641125
0.7677,-0.04415,0.646175
0.768225,-0.041875,0.647275
0.7662,-0.0393,0.642975
0.76945,-0.038975,0.6385
0.771475,-0.0403,0.63495
0.7713,-0.041125,0.63445
0.768875,-0.041625,0.63455
0.769475,-0.041,0.637225
0.7741,-0.044125,0.64065
0.773125,-0.04495,0.644025
0.768075,-0.04265,0.640925
0.771575,-0.041025,0.62445
0.770675,-0.042275,0.633175
0.7727,-0.044475,0.637175
0.771825,-0.0437,0.635625
0.7704333,-0.0413,0.6389667
0.77182,-0.03918,0.63926
0.77305,-0.038825,0.635825
0.77355,-0.040025,0.6294
0.7731,-0.041,0.63165
0.7738,-0.041425,0.6342
0.773875,-0.040825,0.63415
0.77425,-0.04125,0.63155
0.7726,-0.0417333,0.6315
0.77396,-0.0425,0.63376
0.7744,-0.0440667,0.6328667
0.774275,-0.043375,0.6301
0.774225,-0.043575,0.631775
0.7749,-0.0426,0.632925
0.775575,-0.042,0.633975
0.7747,-0.0405,0.631225
0.77465,-0.041925,0.631925
0.774975,-0.04075,0.63295
0.776225,-0.040925,0.6297
0.776475,-0.03985,0.625425
0.775,-0.0385,0.63035
0.77545,-0.041725,0.634375
0.77775,-0.046925,0.633975
0.778675,-0.046575,0.627975
0.7777,-0.045225,0.625125
0.7769,-0.04185,0.620425
0.778475,-0.039125,0.621575
0.779025,-0.04105,0.627375
0.776975,-0.042875,0.6244
0.7758,-0.045075,0.63415
0.774225,-0.04255,0.6305
0.774475,-0.04145,0.632575
0.77655,-0.04175,0.629925
0.77775,-0.0422,0.62585
0.7763,-0.0439,0.632025
0.774375,-0.042275,0.631425
0.776225,-0.042575,0.631825
0.774575,-0.042525,0.63235
0.77155,-0.04245,0.634525
0.775325,-0.042825,0.6302
0.775875,-0.043,0.62915
0.775675,-0.04185,0.6286
0.774625,-0.0432,0.63415
0.7733,-0.042775,0.6338
0.7741,-0.043325,0.6354
0.773425,-0.0429,0.6355
0.77295,-0.04205,0.633975
0.7728,-0.041375,0.6324
0.77265,-0.04175,0.635525
0.7727,-0.04175,0.63545
0.7724,-0.041425,0.63325
0.772225,-0.0418,0.6308
0.771175,-0.041725,0.633425
0.772825,-0.044375,0.640225
0.773425,-0.0448,0.638325
0.77385,-0.0427,0.632575
0.7733,-0.0405,0.631225
0.772425,-0.040425,0.634975
0.7714,-0.0415,0.6377
0.77115,-0.041875,0.63405
0.7694,-0.042275,0.6323
0.770375,-0.0447,0.640525
0.774475,-0.0468,0.640325
0.7742333,-0.0457667,0.6368667
0.77358,-0.04376,0.63218
0.770325,-0.0401,0.6305
0.769275,-0.0388,0.6313
0.7708,-0.040225,0.6357
0.7708,-0.0442,0.6406
0.77044,-0.0461,0.63702
0.7704,-0.042975,0.640075
0.7701,-0.040225,0.63745
0.7703333,-0.0391,0.6348333
0.77095,-0.0407,0.6385
0.77105,-0.042425,0.63685
0.7707,-0.042325,0.635925
0.77278,-0.0425,0.63836
0.7726333,-0.0446,0.6381667
0.769475,-0.044775,0.640075
0.76955,-0.0453,0.635875
0.77105,-0.04485,0.632
0.771225,-0.045275,0.632825
0.773125,-0.04525,0.6371
0.771625,-0.044475,0.6391
0.7719,-0.0432,0.636775
0.772625,-0.040325,0.6343
0.77085,-0.039675,0.632575
0.77215,-0.041125,0.634175
0.7706,-0.0411,0.63825
0.771925,-0.042875,0.6369
0.772175,-0.0428,0.636825
0.771175,-0.043075,0.63465
0.771525,-0.045175,0.638125
0.771775,-0.045725,0.6372
0.7694,-0.0443,0.6375
0.76765,-0.044,0.6401
0.76995,-0.045175,0.6461
0.77085,-0.043,0.64455
0.77465,-0.040125,0.648575
0.778925,-0.038675,0.6448
0.78365,-0.0392,0.642925
0.77765,-0.043325,0.643075
0.76865,-0.044925,0.625225
0.77145,-0.0453,0.602
0.775575,-0.044225,0.6122
0.79155,-0.052,0.61875
0.7677333,-0.0389333,0.6359667
0.76014,-0.0261,0.62174
0.762475,-0.01875,0.619275
0.77225,-0.024425,0.62055
0.773425,-0.027175,0.6553
0.76265,-0.03165,0.6709
0.76365,-0.0314,0.669975
0.768,-0.02945,0.658425
0.759825,-0.01735,0.662025
0.75605,-0.021575,0.642225
0.7681,-0.0343,0.633975
0.75975,-0.032825,0.654675
0.7453,-0.0253,0.6557
0.75464,-0.03254,0.6691
0.7718,-0.0346,0.66215
0.7656,-0.0342,0.666375
0.7595,-0.03995,0.66
0.73965,-0.038875,0.642725
0.74635,-0.03355,0.62665
0.7653,-0.02745,0.663925
0.76665,-0.008725,0.67155
0.752675,-0.010025,0.635375
0.7441333,-0.0119333,0.6096667
0.75134,-0.0168,0.6169
0.77045,-0.0187,0.6558
0.775625,-0.010875,0.66115
0.7785,-0.018175,0.650975
0.7824667,-0.0286,0.6333667
0.76995,-0.0246,0.63
0.76965,-0.030675,0.650875
0.7868,-0.02695,0.6534
0.786675,-0.025525,0.6453
0.757175,-0.02575,0.635
0.7634,-0.025075,0.604375
0.7626,-0.023775,0.6286
0.7699,-0.023325,0.64765
0.76935,-0.01985,0.658675
0.77335,-0.0233,0.645825
0.7748,-0.026825,0.6165
0.7626,-0.022,0.6272
0.763725,-0.01955,0.614425
0.77215,-0.0165,0.617125
0.779325,-0.01095,0.6375
0.776075,-0.011375,0.661475
0.77095,-0.01265,0.672925
0.77935,-0.02315,0.634725
0.771475,-0.02925,0.621625
0.774825,-0.0306,0.627225
0.779725,-0.02025,0.545075
0.785025,-0.032175,0.6731
0.797625,-0.023525,0.6802
0.783875,-0.02335,0.69015
0.770975,-0.023175,0.656825
0.775025,-0.029575,0.5431
