accx,accy,accz
0.958025,-0.0163,0.2572
0.9568833,-0.0175,0.2519333
0.9641,-0.0208333,0.2421333
0.9666,-0.024875,0.231625
0.9735,-0.029375,0.210725
0.97025,-0.021825,0.210425
0.974275,-0.020125,0.220525
0.97305,-0.02205,0.222925
0.9578,-0.021025,0.236525
0.9624,-0.019,0.244625
0.9804,-0.025725,0.2236
0.9545,-0.010375,0.194425
0.966375,-0.0284,0.1973
0.976675,-0.0179,0.2389
0.949925,-0.004025,0.232175
0.9482,0.0035,0.2138
0.994825,-0.02565,0.211825
0.944425,-0.01065,0.226925
0.83735,0.0231,0.147025
1.07455,-0.04945,0.095625
0.999675,-0.02235,0.163375
0.98065,-0.0256,0.191825
0.9634,-0.01995,0.205825
0.961625,-0.01935,0.21675
0.967275,-0.0133,0.2287
0.9785,-0.018825,0.1996
0.974175,-0.019275,0.1903
0.96445,-0.014425,0.21515
0.964575,-0.0127,0.218625
0.959325,-0.0108,0.21165
0.96385,-0.015075,0.207675
0.971125,-0.01705,0.204675
0.9683,-0.0201,0.20945
0.96705,-0.0199,0.221925
0.96795,-0.019975,0.2193
0.969525,-0.021325,0.21695
0.96495,-0.017475,0.216375
0.96725,-0.0182,0.2083
0.9679,-0.0193667,0.1967
0.96424,-0.01204,0.2067
0.9698,-0.010975,0.213925
0.967275,-0.01125,0.2109
0.972825,-0.013975,0.2064
0.9711,-0.0135333,0.2144667
0.96846,-0.0181,0.20272
0.962925,-0.02005,0.211175
0.9713,-0.025125,0.208
0.973875,-0.0231,0.190275
0.9675667,-0.0187,0.1625
0.96528,-0.02122,0.17466
0.962625,-0.016425,0.2152
0.970675,-0.017525,0.22255
0.9681,-0.0173,0.21135
0.966825,-0.0156,0.202975
0.966875,-0.01765,0.20285
0.968175,-0.021,0.207725
0.9706,-0.021275,0.207425
0.968125,-0.021975,0.195025
0.9664333,-0.0199333,0.2034667
0.9661,-0.01818,0.20976
0.96615,-0.017375,0.204075
0.967575,-0.01445,0.206025
0.9719667,-0.0197667,0.2009667
0.96875,-0.020325,0.20445
0.96715,-0.018025,0.206625
0.968525,-0.01805,0.2034
0.970675,-0.017625,0.202525
0.969775,-0.016825,0.204725
0.964975,-0.015025,0.204675
0.9646333,-0.0182333,0.2010333
0.97,-0.01852,0.2053
0.970025,-0.0192,0.20455
0.96685,-0.018325,0.1996
0.96385,-0.01675,0.203525
0.9668,-0.0166,0.201825
0.969425,-0.0177,0.2062
0.970875,-0.0165,0.2011
0.9699,-0.0193,0.20555
0.9707667,-0.0200667,0.2091333
0.96508,-0.01728,0.20358
0.969475,-0.018975,0.206225
0.971475,-0.0232,0.211475
0.9625,-0.01575,0.212375
0.9628,-0.0137333,0.2083667
0.9668,-0.01086,0.1987
0.96865,-0.014975,0.20175
0.968875,-0.019675,0.21855
0.97375,-0.02255,0.205925
0.9690667,-0.0214667,0.1943333
0.9628,-0.01688,0.20908
0.96475,-0.013575,0.2169
0.96545,-0.01345,0.2086
0.9672,-0.014425,0.20545
0.9716667,-0.0175667,0.2021667
0.97118,-0.02396,0.20226
0.96715,-0.021875,0.20745
0.9641,-0.016375,0.211225
0.964625,-0.01345,0.21295
0.9682333,-0.0151333,0.2127667
0.96746,-0.016,0.21314
0.9666667,-0.0163333,0.2075
0.96958,-0.02024,0.1982
0.967875,-0.01775,0.20145
0.9684,-0.0168667,0.2104
0.96678,-0.01608,0.21496
0.96395,-0.013125,0.21215
0.9652,-0.0156,0.215375
0.966725,-0.016975,0.214175
0.9620667,-0.0176,0.2151333
0.96694,-0.01648,0.21694
0.966,-0.018875,0.2216
0.96335,-0.01895,0.222175
0.967425,-0.0162,0.228025
0.9690667,-0.0125333,0.2183333
0.9684667,-0.0115333,0.2128333
0.96385,-0.0158667,0.2146
0.95895,-0.021975,0.2336
0.9625333,-0.0166667,0.2435
0.96906,-0.01462,0.2301
0.96445,-0.013025,0.2122
0.9506333,-0.0161333,0.2430667
0.96552,-0.0124,0.23098
0.9668667,-0.0261333,0.2173333
0.963675,-0.01465,0.215775
0.961025,-0.0177,0.226625
0.9565,-0.0122,0.256325
0.95945,-0.01355,0.257425
0.9683,-0.01715,0.227875
0.962525,-0.0185,0.21745
0.95915,-0.01485,0.24005
0.964375,-0.01225,0.237675
0.9612,-0.017575,0.226975
0.9595,-0.015575,0.2381
0.963575,-0.01815,0.238225
0.966625,-0.01875,0.228
0.960975,-0.01785,0.21965
0.95735,-0.014175,0.237275
0.962925,-0.013525,0.240125
0.96555,-0.01705,0.2274
0.963075,-0.0173,0.22655
0.961825,-0.0162,0.231275
0.96305,-0.01395,0.2277
0.96535,-0.01565,0.22285
0.962575,-0.013925,0.2256
0.9626,-0.013075,0.23215
0.964775,-0.015375,0.229575
0.96465,-0.0196,0.2276
0.9618,-0.013125,0.2251
0.9627,-0.0123333,0.2215667
0.96196,-0.0159,0.22804
0.964575,-0.01765,0.237325
0.964575,-0.01665,0.227875
0.961625,-0.01495,0.226925
0.963475,-0.0156,0.229475
0.962025,-0.01455,0.227275
0.96375,-0.014275,0.2239
0.96685,-0.016925,0.22315
0.96665,-0.01425,0.225325
0.9637667,-0.0147333,0.2258
0.9618,-0.01382,0.22524
0.9589,-0.013325,0.232375
0.966575,-0.0157,0.234225
0.969725,-0.019675,0.225225
0.9651667,-0.0175,0.2149
0.9599,-0.01404,0.2141
0.962475,-0.010925,0.2258
0.96165,-0.0091,0.236775
0.9664,-0.014725,0.232625
0.9639,-0.0215,0.22685
0.96085,-0.0168,0.240925
0.96265,-0.01245,0.230675
0.96175,-0.0099,0.220775
0.958875,-0.011725,0.22665
0.9628,-0.012875,0.2345
0.96935,-0.01745,0.227475
0.967425,-0.01905,0.221
0.960425,-0.0152,0.22075
0.96025,-0.015025,0.229075
0.9644333,-0.0162667,0.2267
0.97166,-0.0191,0.21368
0.967025,-0.0207,0.216475
0.962725,-0.01705,0.2141
0.9620667,-0.0128333,0.2120333
0.96444,-0.01256,0.21876
0.9669667,-0.0152333,0.2232
0.9663,-0.016625,0.219525
0.965075,-0.0172,0.222025
0.962925,-0.014425,0.222625
0.962425,-0.01315,0.222875
0.96585,-0.012275,0.21675
0.965425,-0.01525,0.217725
0.963425,-0.013625,0.2256
0.9644,-0.01515,0.217425
0.964,-0.015,0.2184
0.9681,-0.01408,0.21958
0.966525,-0.0162,0.218325
0.961875,-0.0127,0.227025
0.965675,-0.01435,0.212375
0.9663,-0.01655,0.210175
0.96315,-0.01415,0.2314
0.96855,-0.0124,0.22645
0.963525,-0.0158,0.2092
0.961425,-0.0146,0.222975
0.9684667,-0.0148,0.2276667
0.96932,-0.01668,0.21976
0.959,-0.015575,0.219775
0.959425,-0.011925,0.227375
0.963175,-0.008,0.223575
0.9674,-0.0069,0.2106
0.96605,-0.0137333,0.22015
0.965875,-0.019775,0.234875
0.963125,-0.016625,0.224
0.960525,-0.01015,0.22455
0.9649667,-0.0082,0.2220667
0.963475,-0.0109,0.21775
0.9644,-0.01418,0.22238
0.9676,-0.019675,0.2266
0.96635,-0.01915,0.2284
0.96245,-0.017825,0.22405
0.9624,-0.0130333,0.2185667
0.96448,-0.01062,0.21492
0.9636,-0.012825,0.227125
0.96225,-0.015825,0.2328
0.963875,-0.016075,0.230125
0.967025,-0.0141,0.221
0.9659,-0.012775,0.221225
0.963025,-0.013675,0.22645
0.96325,-0.013775,0.23035
0.9643,-0.0131667,0.2231
0.96275,-0.013975,0.2141
0.96274,-0.0114,0.22394
0.9639,-0.012775,0.23265
0.9634667,-0.0139667,0.2315333
0.965425,-0.0165,0.224125
0.96544,-0.01808,0.22094
0.9622,-0.0144,0.228075
0.9622,-0.0127,0.22925
0.9622,-0.0128333,0.2240333
0.96345,-0.013575,0.22315
0.96275,-0.0132,0.234775
0.9625,-0.01455,0.23355
0.9648,-0.0144,0.22485
0.966475,-0.013575,0.21555
0.9686,-0.015575,0.220725
0.96805,-0.016975,0.224825
0.960775,-0.0177,0.2255
0.96005,-0.009025,0.221975
0.963125,-0.0099,0.21885
0.9639333,-0.0088,0.2307667
0.963775,-0.0105,0.232475
0.96492,-0.01858,0.23272
0.96495,-0.0197,0.228275
0.963175,-0.013275,0.2131
0.9592,-0.0088667,0.2220333
0.96252,-0.00886,0.23164
0.962675,-0.013,0.223075
0.965875,-0.015275,0.2265
0.96975,-0.017775,0.21905
0.9622333,-0.02,0.2233667
0.95932,-0.01432,0.23248
0.966475,-0.010275,0.21575
0.96415,-0.012675,0.217875
0.962575,-0.013575,0.237025
0.9603667,-0.0147333,0.2346
0.96254,-0.01306,0.21992
0.96825,-0.012025,0.221925
0.9664,-0.0137,0.22735
0.964925,-0.015625,0.2275
0.9623667,-0.0139667,0.2189
0.96166,-0.0112,0.22174
0.9648,-0.011625,0.2263
0.965075,-0.0141,0.2271
0.962675,-0.013975,0.233475
0.964,-0.0142333,0.2299333
0.9639,-0.01346,0.22032
0.96155,-0.012775,0.22165
0.961775,-0.01235,0.231375
0.96465,-0.013,0.224725
0.9669667,-0.0150333,0.2187333
0.96616,-0.0137,0.2214
0.962675,-0.01265,0.22365
0.964825,-0.015,0.231475
0.9665,-0.018275,0.226725
0.963125,-0.01435,0.21955
0.9592667,-0.0103333,0.2263667
0.9636,-0.00674,0.22574
0.96305,-0.010175,0.2249
0.96385,-0.01655,0.2353
0.96415,-0.019425,0.22765
0.9623,-0.015075,0.2238
0.9638,-0.010375,0.225425
0.963775,-0.0088,0.2233
0.962175,-0.011325,0.23
0.9639333,-0.0143333,0.2298
0.968175,-0.01825,0.21825
0.96602,-0.01936,0.2188
0.96395,-0.01535,0.233525
0.9619,-0.0141333,0.2324667
0.95865,-0.009225,0.227725
0.96154,-0.01144,0.2279
0.9655,-0.013675,0.22595
0.9656,-0.015575,0.22155
0.96465,-0.016,0.227825
0.9623667,-0.0137333,0.2276667
0.9654,-0.011975,0.22205
0.9661,-0.013425,0.217125
0.962075,-0.012025,0.229425
0.96205,-0.013075,0.22735
0.9616333,-0.0157,0.2274333
0.9658,-0.014325,0.2257
0.96678,-0.0171,0.21916
0.9633,-0.0146,0.227775
0.962575,-0.0131,0.229375
0.9606667,-0.0129333,0.2248333
0.9617,-0.013125,0.231025
0.96512,-0.01512,0.22344
0.96605,-0.01515,0.225825
0.96275,-0.01245,0.229225
0.9661333,-0.0123667,0.2242667
0.9678333,-0.0162,0.2196333
0.9633167,-0.0165833,0.22515
0.9606,-0.011725,0.2241
0.96335,-0.008975,0.21825
0.9642667,-0.0085333,0.2245667
0.9641667,-0.0112333,0.2345333
0.9638667,-0.0160333,0.23625
0.962975,-0.015725,0.226325
0.961625,-0.011125,0.221675
0.9633,-0.0112333,0.2177333
0.96565,-0.0128,0.2228
0.9645714,-0.0117286,0.2217429
0.9667667,-0.0139,0.2174
0.96644,-0.0148,0.22294
0.962675,-0.015025,0.2341
0.9649,-0.0154,0.22575
0.9619,-0.014125,0.2212
0.9625,-0.012075,0.22925
0.9636,-0.0123,0.229625
0.9649333,-0.0125,0.2236333
0.963375,-0.01345,0.219975
0.9624,-0.01136,0.2291
0.967025,-0.009825,0.22155
0.965025,-0.01325,0.219525
0.963825,-0.01495,0.225825
0.9625667,-0.0160333,0.2254
0.96432,-0.01238,0.22322
0.965975,-0.011675,0.219775
0.962475,-0.0117,0.226875
0.96165,-0.01345,0.234875
0.9643,-0.0153,0.2267333
0.96644,-0.01434,0.21556
0.962475,-0.0111,0.220025
0.962125,-0.00875,0.226975
0.963275,-0.010875,0.223275
0.9686333,-0.0127,0.2176333
0.9681,-0.01422,0.22396
0.9642,-0.014675,0.226925
0.965625,-0.015425,0.22515
0.9664667,-0.0173333,0.2209667
0.96158,-0.01194,0.22094
0.96055,-0.00705,0.220125
0.9611,-0.0057,0.2242667
0.9612333,-0.0075,0.2311667
0.9646,-0.0145,0.23494
0.96585,-0.018675,0.2267
0.965125,-0.015575,0.220575
0.965,-0.0107,0.221925
0.96465,-0.00815,0.222525
0.9619667,-0.0084333,0.2240333
0.96526,-0.0114,0.22016
0.96775,-0.017075,0.2185
0.96525,-0.01905,0.22435
0.96315,-0.016,0.227425
0.9597,-0.0104,0.2295333
0.9590333,-0.0079667,0.2297667
0.9627,-0.0092833,0.2269333
0.966275,-0.01455,0.2245
0.96535,-0.0171,0.228425
0.9629667,-0.0155333,0.2297667
0.96542,-0.01198,0.22004
0.965325,-0.0102,0.21305
0.9632,-0.00935,0.226425
0.96295,-0.01185,0.230275
0.9635333,-0.0148667,0.2233333
0.964,-0.0141667,0.2187333
0.96765,-0.0123167,0.2192167
0.963175,-0.012575,0.2314
0.95945,-0.013,0.232325
0.9622,-0.011,0.2244
0.9660333,-0.0125333,0.2220667
0.9672833,-0.0138,0.2204667
0.9611,-0.01295,0.2272
0.9613,-0.01415,0.2312
0.9638667,-0.0137333,0.2267
0.9689,-0.0128667,0.2177333
0.96465,-0.0109167,0.2155667
0.964875,-0.012325,0.2328
0.96895,-0.016975,0.228225
0.9651333,-0.0170333,0.2158667
0.95945,-0.0107,0.217025
0.96054,-0.00508,0.22652
0.960525,-0.0052,0.232275
0.965175,-0.0135,0.232125
0.9686,-0.02055,0.2293
0.96545,-0.0179,0.2221
0.959775,-0.009075,0.22075
0.960125,-0.00585,0.22465
0.964875,-0.010025,0.22485
0.9671,-0.01375,0.219725
0.96715,-0.018125,0.22025
0.9636,-0.017025,0.22875
0.96305,-0.01435,0.228875
0.962475,-0.010875,0.22345
0.96195,-0.008225,0.2254
0.9644333,-0.0117333,0.228
0.96478,-0.01434,0.22992
0.962525,-0.015475,0.2257
0.965,-0.0123,0.224725
0.9656333,-0.0098,0.2214
0.965875,-0.0095,0.220025
0.96392,-0.01126,0.2232
0.96205,-0.012775,0.223625
0.963875,-0.01185,0.2243
0.9652333,-0.0127667,0.2264667
0.96605,-0.0149,0.224425
0.9636,-0.01515,0.22585
0.961075,-0.011725,0.2287
0.9629,-0.010275,0.22455
0.965325,-0.013175,0.2188
0.9654,-0.012525,0.226425
0.96515,-0.013875,0.23015
0.962675,-0.013075,0.2284
0.9618,-0.01285,0.223225
0.96555,-0.012925,0.22155
0.9665,-0.01305,0.2232
0.965875,-0.012625,0.226675
0.9639167,-0.0134833,0.2243
0.967575,-0.0151,0.223825
0.9653,-0.0152,0.2174
0.96015,-0.01055,0.2221
0.96055,-0.008425,0.222725
0.96285,-0.01005,0.22755
0.96525,-0.013925,0.233925
0.9679333,-0.0172333,0.2283333
0.9661333,-0.0176333,0.2219
0.96222,-0.01446,0.22246
0.95936,-0.00866,0.22502
0.963125,-0.00845,0.2238
0.96445,-0.01005,0.223025
0.9696667,-0.0135,0.2200333
0.96976,-0.02088,0.21998
0.962125,-0.01555,0.224075
0.9607,-0.01035,0.216625
0.963775,-0.0074,0.220275
0.9657,-0.00985,0.2237
0.9662667,-0.0109,0.2251667
0.9645571,-0.0134,0.2234714
0.962675,-0.0133,0.221775
0.9644,-0.014275,0.223525
0.9658,-0.01485,0.21845
0.966975,-0.0127,0.218125
0.9689333,-0.0148333,0.2193333
0.9652333,-0.0135,0.2189667
0.96018,-0.01144,0.22536
0.962,-0.0107,0.22145
0.9666167,-0.0137833,0.2147667
0.9676,-0.015325,0.22015
0.9660333,-0.0155333,0.2221333
0.96385,-0.015,0.222525
0.96268,-0.0131,0.22052
0.96,-0.0091,0.2225
0.966775,-0.012775,0.219025
0.9684,-0.016,0.2157667
0.9676,-0.01725,0.218725
0.966225,-0.014125,0.220075
0.96424,-0.01062,0.2165
0.966975,-0.01035,0.2179
0.9699,-0.0132667,0.2169333
0.96865,-0.016325,0.213425
0.961825,-0.01395,0.21215
0.9633,-0.01045,0.21465
0.96655,-0.0066,0.21475
0.967375,-0.012775,0.2167
0.967,-0.015275,0.2233
0.96655,-0.01765,0.213175
0.962775,-0.014175,0.2174
0.965075,-0.010075,0.2227
0.964025,-0.006825,0.22165
0.9642,-0.0102,0.2123
0.967925,-0.01645,0.20335
0.96835,-0.018025,0.2111
0.9677,-0.016675,0.2159
0.96915,-0.0151,0.212525
0.9653,-0.012825,0.210625
0.9657,-0.01235,0.222475
0.96075,-0.0098,0.2215
0.964775,-0.01285,0.213475
0.9678833,-0.0152333,0.2102167
0.966125,-0.015675,0.2144
0.9635,-0.0135,0.21515
0.96536,-0.0113,0.21296
0.95568,-0.00746,0.20426
0.988725,-0.01885,0.21395
0.965325,-0.01035,0.216375
0.964225,-0.012525,0.20075
0.9692,-0.0135,0.201125
0.97105,-0.01355,0.208025
0.965725,-0.0115,0.212625
0.9649,-0.0106,0.21255
0.966575,-0.013625,0.209075
0.96685,-0.015925,0.210225
0.96465,-0.013225,0.2138
0.964925,-0.0109,0.21385
0.9669,-0.012575,0.2092
0.9712,-0.013375,0.201925
0.9718,-0.016975,0.198625
0.966525,-0.014925,0.203325
0.965325,-0.01205,0.2047
0.967875,-0.00915,0.205175
0.96475,-0.009025,0.2118
0.9668,-0.01185,0.213725
0.96805,-0.014425,0.213325
0.96665,-0.012775,0.209825
0.96685,-0.01095,0.207
0.9647,-0.01005,0.211275
0.965925,-0.01045,0.21805
0.96875,-0.01565,0.209425
0.9672,-0.0143,0.205375
0.966525,-0.013125,0.20915
0.9678,-0.013025,0.20865
0.966975,-0.010775,0.204125
0.9677,-0.01165,0.2016
0.9675,-0.0146,0.209625
0.9656333,-0.0158333,0.2136667
0.96632,-0.01576,0.2096
0.968925,-0.013325,0.207775
0.97165,-0.01315,0.209125
0.968,-0.0116,0.2118
0.96698,-0.01252,0.20952
0.9683333,-0.0141667,0.2183
0.96296,-0.01044,0.20794
0.963725,-0.0077,0.20285
0.9657333,-0.0078,0.2085333
0.96965,-0.01155,0.215925
0.9685,-0.012275,0.2083
0.965675,-0.014725,0.207075
0.9663,-0.015525,0.212425
0.966825,-0.012375,0.21415
0.964875,-0.0092,0.214525
0.969525,-0.011975,0.211725
0.972825,-0.016725,0.21025
0.967075,-0.016275,0.205325
0.959625,-0.0113,0.2064
0.96145,-0.00845,0.210125
0.967875,-0.0074,0.215675
0.971175,-0.010575,0.213875
0.9691,-0.01415,0.2109
0.963475,-0.014425,0.2119
0.963425,-0.011675,0.216325
0.967225,-0.0119,0.2051
0.967125,-0.010075,0.205525
0.969725,-0.01015,0.20965
0.970075,-0.013025,0.21075
0.965975,-0.01595,0.218125
0.96395,-0.0173,0.22035
0.9646667,-0.0164,0.2123
0.9655143,-0.0134,0.2092143
0.96685,-0.0107,0.21385
0.966475,-0.01215,0.212775
0.9659,-0.0152,0.2082
0.9671667,-0.0156333,0.2056
0.9683429,-0.0131857,0.207
0.9666667,-0.0105,0.2127
0.96522,-0.00984,0.21572
0.9658,-0.01035,0.21635
0.96895,-0.0118833,0.2067333
0.968125,-0.01245,0.207925
0.96365,-0.01215,0.220475
0.96345,-0.012775,0.2199
0.9657333,-0.0135,0.2111333
0.97112,-0.01418,0.20806
0.968625,-0.012825,0.210125
0.9638,-0.011025,0.2136
0.96805,-0.01495,0.21085
0.971225,-0.017475,0.20745
0.9672,-0.014475,0.205425
0.96345,-0.00975,0.208775
0.96285,-0.008675,0.21355
0.9642,-0.011225,0.215375
0.968325,-0.01245,0.2141
0.967625,-0.013675,0.213925
0.9644,-0.01375,0.220275
0.963475,-0.012275,0.21665
0.9661,-0.0105,0.20695
0.9684667,-0.01,0.2055333
0.96825,-0.011025,0.20995
0.96704,-0.0144,0.21464
0.967875,-0.01545,0.207625
0.96865,-0.015925,0.20475
0.9668,-0.0147333,0.2109667
0.964575,-0.012925,0.215325
0.967425,-0.01195,0.209425
0.96645,-0.01555,0.210625
0.96635,-0.014925,0.217125
0.96635,-0.011775,0.213625
0.96615,-0.011825,0.2097
0.9655,-0.012475,0.216475
0.967575,-0.01215,0.21795
0.968775,-0.0127,0.20505
0.964775,-0.0105,0.20475
0.9633,-0.00825,0.216725
0.966725,-0.010575,0.2158
0.96535,-0.014675,0.201925
0.959225,-0.018525,0.19915
0.96455,-0.0238,0.18995
0.969425,-0.013125,0.2052
0.9725167,-0.0135333,0.2447
0.959275,-0.010875,0.221725
0.9677,-0.014725,0.206075
0.9678,-0.0168333,0.2017
0.96744,-0.0158,0.21764
0.968,-0.014275,0.22885
0.95925,-0.007225,0.2241
0.96525,-0.008975,0.21825
0.97105,-0.0139,0.22245
0.9712,-0.0192,0.22375
0.9632167,-0.01605,0.2169167
0.9644,-0.01195,0.215075
0.9644,-0.009375,0.221775
0.96715,-0.01005,0.2211
0.96805,-0.0116,0.221425
0.9664667,-0.0156833,0.22025
0.9625,-0.015725,0.21555
0.962725,-0.0166,0.214625
0.96305,-0.014025,0.224925
0.9723667,-0.0118333,0.2198667
0.97148,-0.00964,0.21118
0.9655,-0.0111,0.2121
0.961,-0.011475,0.213925
0.9596,-0.017525,0.218975
0.96275,-0.018525,0.226025
0.9652,-0.0163,0.2196
0.964525,-0.010625,0.223175
0.961575,-0.011225,0.233
0.962175,-0.013275,0.22975
0.965625,-0.019175,0.221275
0.965925,-0.019975,0.231575
0.9623667,-0.0159333,0.2315
0.95934,-0.01462,0.2242
0.96345,-0.01655,0.23175
0.962,-0.0157,0.24985
0.958775,-0.012925,0.2482
0.958525,-0.01655,0.244475
0.959975,-0.018925,0.24075
0.961825,-0.01815,0.23635
0.9596333,-0.0189667,0.2387
0.96278,-0.01998,0.25066
0.9615667,-0.0190667,0.2468333
0.95655,-0.015225,0.24305
0.9556,-0.013675,0.247275
0.9565,-0.0097,0.2501
0.961575,-0.0143,0.250125
0.960875,-0.0182,0.246975
0.958025,-0.019575,0.254375
0.958225,-0.01745,0.246025
0.957,-0.0143,0.244725
0.95725,-0.0129,0.253675
0.960175,-0.0132,0.25475
0.961725,-0.0151,0.251725
0.962425,-0.019725,0.249175
0.955725,-0.01965,0.247175
0.95565,-0.01785,0.2421
0.95395,-0.014725,0.252775
0.956875,-0.01495,0.25425
0.95575,-0.01925,0.249025
0.958225,-0.019075,0.247825
0.9621,-0.018825,0.2454
0.9614,-0.0146,0.252725
0.96025,-0.015475,0.249525
0.9578,-0.012975,0.2323
0.9483667,-0.0087,0.2118333
0.96394,-0.02072,0.2432
0.963425,-0.022475,0.255825
0.96205,-0.016975,0.253475
0.961375,-0.019425,0.241575
0.9614667,-0.0229333,0.2340333
0.95896,-0.01526,0.24638
0.959925,-0.018025,0.251925
0.95805,-0.01525,0.237175
0.96385,-0.0172,0.22865
0.964775,-0.017175,0.235675
0.96355,-0.015675,0.2418
0.964625,-0.01515,0.2377
0.964175,-0.01565,0.233975
0.95895,-0.01455,0.23995
0.963225,-0.0179,0.241575
0.962875,-0.018025,0.23285
0.959625,-0.014725,0.22455
0.9616333,-0.0177333,0.2316
0.9588,-0.01408,0.24292
0.96025,-0.01265,0.243425
0.970975,-0.0215,0.23235
0.961725,-0.016425,0.2414
0.9614,-0.0175,0.240575
0.957125,-0.01515,0.23315
0.957725,-0.01355,0.23285
0.95915,-0.0127,0.2287
0.960975,-0.013275,0.22025
0.9661,-0.0115667,0.2247667
0.9679,-0.0147,0.223225
0.96244,-0.0159,0.23654
0.9576,-0.0151333,0.2329333
0.9572,-0.0154,0.228775
0.967375,-0.019225,0.2238
0.9655,-0.0143,0.23385
0.960425,-0.0127,0.2337
0.962075,-0.0143,0.25085
0.954375,-0.01485,0.254125
0.9513,-0.016025,0.262075
0.959375,-0.0159,0.2312
0.96525,-0.01685,0.221525
0.95485,-0.01375,0.2429
0.966775,-0.02035,0.260475
0.9581,-0.014425,0.268975
0.962675,-0.016425,0.2282
0.96335,-0.016925,0.255775
0.9669,-0.021725,0.2477
0.942425,-0.011925,0.2526
0.975025,-0.0226,0.258475
0.973925,-0.030675,0.228275
0.949475,-0.019025,0.228525
0.953025,-0.018825,0.2391
0.957625,-0.01185,0.233825
0.965375,-0.01405,0.228075
0.970625,-0.024075,0.22905
0.952975,-0.019425,0.254075
0.950525,-0.0154,0.2346
0.952175,-0.015325,0.244825
0.965375,-0.021125,0.260475
0.965875,-0.0196,0.2488
0.957875,-0.01535,0.236825
0.95425,-0.0137,0.22825
0.963625,-0.0223,0.249725
0.95155,-0.0193,0.2658
0.9608,-0.019725,0.250625
0.9702,-0.0262,0.2488
0.9642,-0.025,0.2667667
0.95246,-0.01878,0.23556
0.9619,-0.019875,0.24195
0.9618,-0.022,0.235975
0.953875,-0.019125,0.24605
0.9598,-0.02315,0.25145
0.9589,-0.0213667,0.2422333
0.95575,-0.015575,0.2467
0.964625,-0.019125,0.237
0.961725,-0.021375,0.24295
0.95625,-0.0184,0.24525
0.9571667,-0.0201,0.2444667
0.9609,-0.01962,0.24644
0.96675,-0.02285,0.24075
0.952475,-0.0171,0.2549
0.95365,-0.019125,0.24925
0.956275,-0.021275,0.241825
0.9613,-0.0242667,0.2493333
0.96552,-0.02326,0.25116
0.9542,-0.018375,0.252475
0.9579333,-0.0226,0.2423667
0.9613,-0.02602,0.24284
0.958475,-0.0211,0.236325
0.952425,-0.0152,0.24055
0.9545333,-0.014,0.2575333
0.95075,-0.0124,0.2537
0.960975,-0.023075,0.245425
0.96444,-0.03218,0.26778
0.96285,-0.03235,0.27525
0.9561,-0.02165,0.2411667
0.9569,-0.0215667,0.2585
0.96,-0.026175,0.26955
0.95474,-0.02464,0.26002
0.9626667,-0.0267,0.2501
0.9633,-0.02885,0.254425
0.961025,-0.0278,0.25085
0.950875,-0.024275,0.24515
0.953075,-0.026625,0.26885
0.959625,-0.0289,0.2751
0.953075,-0.025925,0.26485
0.95365,-0.024,0.266075
0.948325,-0.019075,0.249775
0.957425,-0.0245,0.2444
0.967025,-0.02575,0.165
0.955675,-0.01415,0.305025
0.943325,-0.023875,0.29115
0.952175,-0.02925,0.3117
0.958525,-0.03925,0.3212
0.96935,-0.0322,0.221725
0.965675,-0.0211,0.191375
0.9514,-0.0099,0.2571667
