accx,accy,accz
0.97945,0.05815,0.11015
0.9757,0.062925,0.117925
0.9719,0.06775,0.1209
0.98092,0.06194,0.10998
0.98175,0.055025,0.09885
0.9846,0.06135,0.10435
0.989675,0.0645,0.104825
0.9916667,0.0625667,0.0924
0.99,0.06374,0.08916
0.9948,0.056825,0.0667
0.989325,0.055725,0.06535
0.97675,0.061925,0.080275
0.9678333,0.0683,0.0960333
0.95432,0.07458,0.09884
0.961825,0.0691,0.0948
0.9627,0.067025,0.09865
0.971675,0.063675,0.09115
0.9809667,0.0587,0.0934667
0.97896,0.0609,0.10168
0.979225,0.063575,0.119075
0.984275,0.05975,0.124075
0.980775,0.052275,0.110075
0.97215,0.05525,0.10455
0.97825,0.0543,0.10925
0.9831667,0.0517,0.1145
0.9891,0.04825,0.1106
0.9938,0.043325,0.110625
0.986875,0.047475,0.11045
0.9802,0.05115,0.1011
0.9790833,0.0492333,0.0951167
0.971775,0.05615,0.105625
0.964025,0.062325,0.106925
0.9646,0.06335,0.092725
0.97705,0.057,0.07475
0.9811667,0.05625,0.0800333
0.990975,0.0542,0.07055
0.98865,0.054925,0.05845
0.975625,0.0594,0.043225
0.9681,0.05685,0.0278
0.9615333,0.0505833,0.0133333
0.947275,0.04405,-0.008675
0.933475,0.0518,-0.007975
0.913725,0.0528,-0.031675
0.893425,0.047025,-0.047325
0.8636333,0.0534,-0.0546667
0.84104,0.04554,-0.08362
0.80435,0.045875,-0.0994
0.7753333,0.0499667,-0.1082333
0.7535,0.055025,-0.102875
0.76002,0.06898,-0.06738
0.795075,0.092525,-0.02855
0.846375,0.09345,-0.0072
0.908125,0.080575,0.0053
0.9406667,0.0625667,0.0070333
0.90024,0.05934,-0.03312
0.883,0.0444333,-0.0990667
0.93206,0.0147,-0.05848
0.9205667,0.0117667,-0.0253333
0.90645,0.0086,-0.04135
0.92335,0.01075,-0.04
0.921175,0.047325,-0.0389
0.94885,0.08945,-0.0003
1.003825,0.13685,0.004875
0.982725,0.1587,-0.023275
1.00625,0.16055,-0.1211
1.0519,0.137175,-0.2031
1.064275,0.244725,-0.110875
1.015075,0.323525,-0.0555
0.97595,0.332775,-0.0122
0.9562,0.262825,-0.0337
0.9525,0.208575,-0.088175
0.960125,0.178325,-0.1191
0.928325,0.187725,-0.123475
0.946725,0.190375,-0.02465
0.955425,0.2723,-0.06195
0.937525,0.201525,-0.182625
1.067875,0.280125,-0.061575
1.02405,0.36605,0.0358
1.105025,0.3966,0.0046
1.18475,0.363975,-0.034625
1.061,0.32755,-0.309375
1.075125,0.265225,-0.481625
1.042925,0.194775,-0.5576
1.1146667,0.1066,-0.3756667
1.16214,0.17412,0.01788
1.085225,-0.19725,-0.042075
1.089975,-0.1164,0.161675
1.1374,-0.005175,0.367675
1.0744,0.0501333,0.3274
0.96518,0.13862,0.0765
0.9156,0.096,0.11135
0.93335,0.025525,0.1853
1.013825,0.038025,0.3137
0.99035,0.112675,0.405625
0.98645,0.133775,0.41735
0.979625,0.11125,0.3052
0.995975,0.09105,0.348125
0.98835,0.106325,0.3514
0.985125,0.0839,0.30365
0.910325,0.107075,0.334775
0.93335,0.075825,0.38495
0.924225,0.069375,0.353875
0.9024,0.064125,0.37475
0.91385,0.01335,0.42295
0.89285,-0.01075,0.429575
0.879825,-0.032825,0.3919
0.923925,-0.05135,0.340975
0.966475,-0.07955,0.396625
0.943,-0.056775,0.419
0.918675,-0.042075,0.3714
0.879675,0.000875,0.50675
0.8037333,-0.0037,0.4049
0.82724,-0.0814,0.44774
0.818775,-0.05185,0.48305
0.825075,-0.1071,0.392825
0.844925,-0.085825,0.405325
0.860675,-0.048175,0.3949
0.9054333,-0.0154667,0.3533333
0.97696,-0.01798,0.34358
1.012875,-0.0402,0.31915
0.9822667,-0.0133333,0.2773
0.967575,-0.10235,0.144725
1.01485,-0.07395,0.182625
1.03345,-0.040925,0.24545
0.978125,-0.016925,0.257725
0.9526,0.0671,0.354775
0.902425,0.10515,0.390525
0.84395,0.077175,0.40355
0.88,0.0724,0.44235
0.888425,0.06585,0.456525
0.918225,0.03745,0.43795
0.903625,0.0355,0.39055
0.9165,0.048625,0.4096
0.90895,0.04575,0.40605
0.8876,0.06545,0.3978
0.910025,0.06635,0.43945
0.948075,0.0597,0.4471
0.91225,0.0678,0.3896
0.8962,0.066225,0.284275
0.91385,0.0261,0.33925
0.9099,0.037425,0.363275
0.9146,0.0245,0.392125
0.93435,0.01385,0.384775
0.9306,0.0185,0.396525
0.923675,0.0215,0.38115
0.91985,0.02135,0.370925
0.91825,0.026025,0.36935
0.9199,0.032875,0.37635
0.92455,0.04125,0.383575
0.92965,0.0422,0.401525
0.927925,0.037525,0.3943
0.91605,0.02865,0.34635
0.920575,-0.016975,0.319
0.901775,-0.0135,0.339375
0.890675,0.10005,0.37
0.94275,0.088475,0.32795
0.972525,0.099675,0.3343
0.9623667,0.0933333,0.2199667
0.95392,0.01088,0.2556
0.95775,0.039725,0.297025
0.9289,0.0099333,0.3392333
0.927,0.07724,0.32812
0.9196,0.112425,0.33595
0.9237,0.112675,0.330375
0.93425,0.091375,0.313225
0.93975,0.07455,0.31545
0.9381,0.063,0.320925
0.942225,0.054775,0.311275
0.93935,0.055325,0.304525
0.941125,0.0552,0.32385
0.9302667,0.0597667,0.3290333
0.9086,0.06494,0.342
0.93655,0.065125,0.3293
0.9601,0.0513667,0.3193667
0.95554,0.04642,0.3174
0.926125,0.0503,0.2846
0.92975,0.045825,0.28205
0.9466,0.043325,0.317225
0.9452,0.0511,0.318125
0.93525,0.054,0.336175
0.9293667,0.0495333,0.3312333
0.93235,0.04845,0.32465
0.93695,0.0503,0.312925
0.938,0.0528,0.32325
0.939825,0.057075,0.325925
0.93225,0.0619,0.320375
0.937325,0.052375,0.307425
0.938775,0.055,0.326625
0.93445,0.0575,0.342425
0.9345,0.05885,0.335525
0.92965,0.055925,0.31845
0.936225,0.0517,0.317125
0.938675,0.0518,0.328125
0.935425,0.0526,0.326875
0.935,0.05175,0.32555
0.937,0.048025,0.322
0.9359,0.050475,0.325175
0.935175,0.0489,0.326325
0.9369,0.049125,0.318825
0.93525,0.0495,0.32285
0.935475,0.047725,0.32405
0.93455,0.05105,0.320125
0.936425,0.049175,0.326
0.9389,0.05015,0.328475
0.937075,0.049275,0.32515
0.933125,0.0498,0.3299
0.93305,0.050725,0.3294
0.9366,0.04875,0.326575
0.93315,0.051575,0.33045
0.932375,0.054925,0.329975
0.935475,0.054075,0.32605
0.936825,0.0507,0.325325
0.935225,0.051625,0.330425
0.9345667,0.0522333,0.3278333
0.93204,0.05234,0.3314
0.931575,0.052475,0.329975
0.9345,0.049425,0.3293
0.934025,0.049325,0.322875
0.93515,0.048375,0.327125
0.934475,0.0495,0.333375
0.9345333,0.0487333,0.3321333
0.93258,0.04872,0.32846
0.93395,0.0496,0.329925
0.935875,0.0489,0.331975
0.935325,0.04855,0.327025
0.9358,0.048225,0.33125
0.933825,0.04795,0.3324
0.931075,0.051625,0.3309
0.932425,0.051775,0.3327
0.932325,0.05065,0.33005
0.93275,0.049675,0.326975
0.932375,0.0509,0.326475
0.93055,0.053475,0.329775
0.9315,0.05205,0.33025
0.933775,0.0487,0.33035
0.93645,0.04645,0.33405
0.9378,0.04795,0.33315
0.938075,0.0467,0.3316
0.9343333,0.0486667,0.3358667
0.930975,0.051025,0.3356
0.92895,0.05115,0.332575
0.933825,0.04985,0.33415
0.93645,0.046925,0.33015
0.93705,0.049375,0.339075
0.931525,0.051625,0.340275
0.928425,0.0495,0.333725
0.934625,0.045525,0.32385
0.93525,0.046025,0.3222
0.93615,0.047125,0.33245
0.9339,0.05005,0.330375
0.9336,0.05005,0.3289
0.9317,0.05095,0.333325
0.93255,0.05,0.342
0.932725,0.04995,0.337925
0.933275,0.048825,0.33585
0.9292,0.0502,0.3276
0.92935,0.050275,0.328025
0.930725,0.052675,0.33505
0.93065,0.053425,0.336375
0.93715,0.0478,0.33005
0.93495,0.04895,0.329475
0.93325,0.05135,0.33495
0.929275,0.056225,0.343225
0.92045,0.060725,0.33695
0.92355,0.053725,0.344675
0.928925,0.05445,0.3277
0.939625,0.0515,0.3178
0.9578,0.032025,0.305075
0.9476,0.037575,0.304975
0.936225,0.043725,0.32685
0.9302,0.0441,0.3314667
0.92844,0.04496,0.33432
0.932875,0.0437,0.34225
0.932975,0.044675,0.336175
0.932075,0.0444,0.3387
0.932675,0.044375,0.331075
0.935425,0.0445,0.3294
0.93455,0.04415,0.32935
0.932125,0.045775,0.332575
0.93575,0.04365,0.3327
0.9348333,0.0456333,0.3363667
0.931225,0.04675,0.3355
0.930175,0.0468,0.334
0.93422,0.0474,0.3261
0.9376,0.0469667,0.3272333
0.9338,0.04956,0.32942
0.9360667,0.0485667,0.3318333
0.93642,0.04706,0.32538
0.934775,0.0404,0.323125
0.933475,0.03885,0.3214
0.9351667,0.0424667,0.3288
0.9379,0.04286,0.33336
0.93655,0.04165,0.326725
0.9306,0.04535,0.328575
0.92975,0.04525,0.3282
0.9289333,0.0429333,0.3304667
0.9360667,0.041,0.3294667
0.935175,0.041675,0.328825
0.934925,0.042125,0.331225
0.935625,0.040825,0.32735
0.93565,0.042425,0.32745
0.93445,0.0418,0.329275
0.93245,0.045275,0.335525
0.9335,0.044875,0.34005
0.934,0.044,0.336675
0.93475,0.0435,0.336025
0.933575,0.0432,0.337025
0.931575,0.043025,0.3366
0.93085,0.0413,0.336
0.932325,0.0394,0.333125
0.93235,0.0403,0.334175
0.931275,0.039775,0.33605
0.9311,0.0401,0.3386
0.931275,0.03965,0.340475
0.930975,0.039675,0.33375
0.932225,0.039575,0.3353
0.9328,0.040525,0.338875
0.931925,0.04015,0.3382
0.932675,0.04075,0.339425
0.9311,0.0412,0.3382
0.9304667,0.04055,0.3372667
0.93165,0.04185,0.344125
0.933225,0.042875,0.343275
0.9326,0.0427,0.340725
0.931575,0.043275,0.3376
0.9297,0.04355,0.33735
0.931575,0.04325,0.336925
0.931875,0.04015,0.3421
0.93115,0.04065,0.3393
0.932975,0.0419,0.339975
0.9311,0.042525,0.34125
0.93085,0.041425,0.340175
0.92975,0.0408,0.3519
0.932675,0.03825,0.358275
0.93265,0.041875,0.361325
0.933975,0.039975,0.33615
0.9342,0.04135,0.32
0.928425,0.045275,0.28
0.934975,0.037875,0.28245
0.950275,0.033675,0.305125
0.9493333,0.0334,0.3068667
0.94512,0.03792,0.30586
0.937975,0.042975,0.297825
0.93815,0.04315,0.30205
0.9438,0.041125,0.30325
0.9457667,0.0395,0.3024
0.94454,0.03808,0.30084
0.9397,0.0393667,0.3015667
0.9388,0.0401,0.30535
0.943925,0.037325,0.300125
0.95352,0.03306,0.29118
0.9555,0.03385,0.301925
0.94975,0.0405,0.303925
0.9520333,0.0384,0.2962
0.94575,0.038225,0.30595
0.93385,0.048775,0.327575
0.9257,0.04932,0.32252
0.9322333,0.038,0.2965333
0.938175,0.0369,0.2949
0.944975,0.03455,0.282775
0.942775,0.036225,0.292975
0.9425,0.04095,0.296075
0.94215,0.042825,0.2925
0.946375,0.036325,0.288475
0.94435,0.04315,0.291575
0.93695,0.046,0.295
0.950275,0.037525,0.300125
0.96545,0.030675,0.30105
0.95635,0.035625,0.2969
0.94795,0.033975,0.301075
0.93965,0.034125,0.298375
0.94025,0.03365,0.3019
0.94485,0.0302,0.306425
0.94345,0.030325,0.314575
0.9421,0.029775,0.312975
0.9396,0.03005,0.300875
0.941125,0.032575,0.295
0.945875,0.034825,0.2977
0.944825,0.036925,0.298775
0.94465,0.037275,0.2941
0.941725,0.03935,0.295075
0.9489,0.03895,0.2841
0.948475,0.03825,0.280275
0.946125,0.041125,0.2916
0.949,0.039775,0.298125
0.944925,0.040275,0.2999
0.947625,0.037575,0.290275
0.94565,0.04245,0.291475
0.9418,0.044475,0.28285
0.9481333,0.0395,0.2776333
0.94986,0.03852,0.28082
0.9484,0.0407,0.281175
0.94955,0.03745,0.272625
0.9515,0.034775,0.271075
0.9489333,0.0384667,0.2707
0.95166,0.04,0.27004
0.956625,0.0379,0.27305
0.95735,0.0405,0.277475
0.948075,0.04335,0.2744
0.9544667,0.0380667,0.2712667
0.95046,0.03712,0.27024
0.95195,0.03525,0.26885
0.95645,0.03525,0.26465
0.951125,0.0411,0.26455
0.9512,0.044225,0.266475
0.95235,0.0427,0.26485
0.9532,0.041775,0.2705
0.9534,0.041,0.267625
0.959425,0.041675,0.264375
0.9511333,0.0433667,0.2621
0.95176,0.04264,0.2629
0.9489333,0.0458,0.2666333
0.945375,0.050325,0.28335
0.950275,0.043075,0.2696
0.955775,0.036125,0.261225
0.952275,0.043275,0.267125
0.95195,0.046,0.2586
0.95425,0.04405,0.247375
0.957675,0.037625,0.2548
0.958525,0.0369,0.245
0.96105,0.0377,0.23275
0.9641,0.034075,0.238525
0.9597,0.03265,0.248675
0.96305,0.028525,0.247725
0.95645,0.0377,0.2397
0.95765,0.037325,0.2485
0.954725,0.040225,0.249175
0.95865,0.035575,0.248575
0.954275,0.04125,0.24685
0.957,0.042425,0.243075
0.9587,0.04015,0.24795
0.95395,0.04445,0.24785
0.95545,0.0405,0.2515
0.957575,0.04145,0.251475
0.956825,0.0426,0.248625
0.955425,0.0418,0.24115
0.958475,0.043575,0.24725
0.9592,0.040325,0.2548
0.95565,0.035675,0.2468
0.95555,0.03675,0.2442
0.9543667,0.0392833,0.25285
0.955,0.042175,0.2516
0.95555,0.044175,0.249775
0.9604,0.04235,0.25245
0.95735,0.044725,0.253125
0.9554,0.0458,0.2584
0.9562,0.04735,0.2685
0.955275,0.04925,0.2649
0.951625,0.044,0.26785
0.951925,0.042275,0.2653
0.9496,0.042425,0.275325
0.948825,0.0423,0.27375
0.94915,0.040075,0.277975
0.9519,0.038275,0.275325
0.951375,0.039975,0.273425
0.95005,0.043025,0.271275
0.952175,0.042275,0.27165
0.952625,0.04105,0.2759
0.952275,0.0416,0.271925
0.9515,0.04345,0.2716
0.951375,0.04355,0.26825
0.954275,0.041175,0.2642
0.9535,0.040875,0.2631
0.954,0.04185,0.26885
0.9526,0.0417333,0.2727333
0.9535,0.04276,0.2739
0.949675,0.044175,0.2739
0.949,0.0431333,0.2717667
0.94872,0.04188,0.27144
0.9500667,0.0425333,0.2709333
0.950175,0.04405,0.27365
0.952775,0.04295,0.272925
0.9532667,0.0426333,0.2740333
0.9514333,0.0423167,0.2714333
0.95005,0.04315,0.26915
0.951675,0.0435,0.272825
0.9499333,0.0431,0.2742
0.952775,0.041625,0.27155
0.94215,0.0451,0.27655
0.9557,0.0451,0.270525
0.956625,0.044975,0.26525
0.95665,0.044425,0.25645
0.95395,0.043925,0.265775
0.9515,0.041425,0.2749
0.9515,0.0435,0.2688
0.95265,0.04305,0.259325
0.950875,0.044125,0.2515
0.956275,0.044375,0.257175
0.95865,0.043775,0.259725
0.9563667,0.0441,0.2615667
0.95376,0.04396,0.2646
0.9515,0.041925,0.2651
0.949875,0.04195,0.26195
0.9512,0.043,0.2656
0.9526667,0.0419667,0.2654333
0.9515,0.040675,0.268975
0.95122,0.0435,0.2677
0.95545,0.044575,0.266
0.954575,0.04405,0.26505
0.9520333,0.0443333,0.2634333
0.9537,0.04235,0.264625
0.95318,0.04444,0.26852
0.95255,0.044925,0.271025
0.954025,0.0432,0.2664
0.95255,0.042925,0.265775
0.952825,0.04265,0.264925
0.953325,0.0421,0.257175
0.957375,0.04085,0.261575
0.952825,0.043075,0.26475
0.953625,0.04285,0.26305
0.95245,0.04325,0.26365
0.954925,0.042475,0.260775
0.9521,0.04255,0.2597
0.95325,0.0383,0.251875
0.960725,0.037125,0.25405
0.9628,0.037025,0.250675
0.95665,0.03825,0.264475
0.9529,0.040275,0.265975
0.95395,0.039175,0.2633
0.9567,0.0389667,0.2501
0.95208,0.04296,0.25526
0.95355,0.04385,0.260225
0.955475,0.041375,0.25875
0.954525,0.040575,0.249
0.9579,0.0377667,0.2486333
0.95994,0.04026,0.25504
0.9563667,0.0401,0.2574333
0.955725,0.04235,0.249725
0.95648,0.0413,0.25038
0.9575667,0.0384667,0.2439667
0.954,0.04208,0.24838
0.9558,0.0399333,0.2480333
0.95785,0.0339,0.243425
0.955525,0.03305,0.242075
0.9576,0.031975,0.246025
0.96055,0.0349,0.23755
0.964475,0.035225,0.2394
0.96305,0.0359,0.2381
0.95865,0.0375,0.242875
0.959375,0.03515,0.246775
0.9611,0.0316,0.247025
0.9625,0.02695,0.238225
0.9587,0.022625,0.226675
0.956,0.02145,0.2155
0.960525,0.026275,0.223375
0.96885,0.0259,0.2306
0.9608,0.034625,0.2372
0.956475,0.037525,0.241375
0.9556,0.036475,0.236525
0.9567667,0.0367,0.2289
0.959,0.03135,0.2306
0.9657,0.02614,0.22758
0.96485,0.024325,0.23175
0.96305,0.0253,0.22815
0.9637,0.026,0.2232
0.96185,0.027725,0.22835
0.96352,0.02892,0.23108
0.96155,0.0265,0.235075
0.961725,0.026275,0.23085
0.9599667,0.0262333,0.2272
0.96708,0.02434,0.2249
0.963775,0.02365,0.22605
0.960475,0.025225,0.230225
0.962875,0.02835,0.23105
0.9633,0.0298,0.2315333
0.9623,0.0310333,0.2324667
0.9605667,0.0325,0.2332
0.9587714,0.0304,0.2293857
0.95835,0.0275,0.2273
0.9576333,0.0297,0.2275
0.9663,0.0274,0.2252667
0.96575,0.0275833,0.2280333
0.9657,0.025275,0.23045
0.96735,0.022925,0.228525
0.9614,0.0348667,0.2057667
0.9592667,0.0350333,0.2002333
0.96165,0.03025,0.2195667
0.966725,0.023275,0.2205
0.96475,0.023825,0.219075
0.9648333,0.0242333,0.2238
0.96225,0.0239,0.233525
0.9655,0.02566,0.2275
0.96385,0.025775,0.225575
0.9609667,0.0274,0.2276667
0.95925,0.030475,0.232
0.95928,0.02996,0.24766
0.9593,0.02675,0.2499
0.958475,0.0274,0.24465
0.9566,0.0280333,0.243
0.9566,0.027475,0.23975
0.96176,0.0272,0.23076
0.964325,0.02955,0.23635
0.961,0.030375,0.237675
0.959975,0.031225,0.237
0.9624,0.029575,0.238975
0.9600667,0.0277667,0.2375333
0.961,0.02636,0.23594
0.9614,0.0272333,0.2352667
0.9618,0.02565,0.232975
0.96055,0.02755,0.232625
0.9628,0.029025,0.236525
0.96225,0.027675,0.24
0.96135,0.028575,0.242775
0.959225,0.0274,0.238825
0.958525,0.02855,0.236525
0.961225,0.028275,0.235
0.962075,0.02685,0.236525
0.95835,0.028,0.225875
0.958525,0.027975,0.224475
0.9644,0.0278667,0.2353333
0.96404,0.02708,0.22818
0.968375,0.027025,0.226
0.9675,0.0275667,0.2286667
0.96302,0.02676,0.22824
0.962525,0.02445,0.23035
0.96505,0.0215,0.2281
0.967575,0.0289,0.20475
0.965125,0.0286,0.210925
0.963675,0.0223,0.19845
0.95955,0.019,0.201325
0.95895,0.024675,0.21
0.961275,0.0246,0.217875
0.964225,0.02255,0.22455
0.9675,0.027025,0.2168
0.9709333,0.0342,0.2220667
0.96444,0.0316,0.23082
0.95885,0.020975,0.220775
0.96245,0.019925,0.218825
0.960775,0.022,0.219125
0.9673667,0.0236333,0.2179667
0.96688,0.02322,0.21822
0.965675,0.02205,0.214575
0.96385,0.023225,0.219875
0.9617,0.0227333,0.2264
0.96388,0.0185,0.22686
0.9664,0.018275,0.225125
0.964675,0.020425,0.2274
0.96275,0.021375,0.22425
0.96335,0.021325,0.21925
0.9644,0.02235,0.2202
0.963975,0.0272,0.2285
0.964075,0.02565,0.229075
0.961025,0.023875,0.224675
0.9606,0.0254333,0.2251667
0.96055,0.0255,0.22735
0.96,0.0268,0.227725
0.96128,0.02706,0.22766
0.9658,0.02565,0.224
0.96475,0.0257,0.226625
0.962175,0.026075,0.228775
0.9625333,0.0226667,0.2314333
0.96122,0.02424,0.22922
0.9617,0.0259,0.23245
0.9633667,0.022,0.2307667
0.963725,0.021625,0.23145
0.962675,0.0226,0.223025
0.9619,0.022175,0.2275
0.960675,0.024075,0.228025
0.96215,0.025425,0.22885
0.962025,0.02505,0.23205
0.960175,0.02475,0.227475
0.964325,0.0234,0.22785
0.96435,0.02525,0.2301
0.962,0.02555,0.2306
0.9629333,0.0251,0.2282333
0.96276,0.02648,0.2278
0.96165,0.02495,0.231325
0.960375,0.02495,0.229675
0.960375,0.02645,0.233025
0.96195,0.026325,0.2298
0.96435,0.02585,0.2273
0.9637667,0.0260667,0.2309333
0.96136,0.02424,0.22866
0.960625,0.025975,0.22845
0.9618667,0.0262333,0.2313667
0.9641333,0.0231667,0.2287333
0.9640833,0.0218833,0.2289667
0.962075,0.02315,0.226425
0.962975,0.02565,0.227175
0.9638333,0.0240667,0.2268
0.96224,0.02452,0.23244
0.96565,0.023775,0.2306
0.969325,0.024325,0.226325
0.9637667,0.0217667,0.2254667
0.95945,0.026075,0.222275
0.95622,0.02576,0.22238
0.958425,0.02915,0.22625
0.9634,0.02715,0.223425
0.968975,0.023825,0.219375
0.9658,0.025575,0.2248
0.96015,0.0266,0.2264
0.9591,0.0265667,0.2227333
0.9617429,0.0265429,0.2200571
0.963125,0.027525,0.222675
0.965175,0.02625,0.2237
0.9647,0.0272,0.2265
0.9651333,0.0257,0.2248
0.9649286,0.0261429,0.2178857
0.9698667,0.0246333,0.215
0.9730333,0.0208,0.2136
0.97475,0.022125,0.209475
0.9614833,0.0291333,0.216
0.95835,0.024975,0.20805
0.9586,0.02825,0.20935
0.960275,0.02715,0.213125
0.9664,0.025125,0.20995
0.9682,0.02555,0.215375
0.973,0.0234,0.209775
0.966175,0.025,0.208175
0.96395,0.026025,0.208125
0.962875,0.027,0.209925
0.963975,0.0268,0.209725
0.963275,0.027725,0.21085
0.9668667,0.0253,0.2119667
0.966375,0.0242,0.21355
0.96625,0.0248,0.21335
0.9669,0.02225,0.209625
0.96615,0.0249,0.205925
0.9685,0.021175,0.188975
0.973675,0.02155,0.18365
0.97345,0.02095,0.186375
0.9701,0.021025,0.1845
0.96855,0.02755,0.194425
0.9683,0.027375,0.198625
0.96885,0.025675,0.19275
0.967625,0.02625,0.19055
0.969775,0.0244,0.1893
0.9715,0.025075,0.187225
0.97075,0.0265,0.18605
0.97125,0.02475,0.189825
0.9692,0.023775,0.195175
0.96775,0.0247,0.199625
0.968325,0.0248,0.1977
0.9655,0.0257333,0.1979333
0.96952,0.02226,0.197
0.9687,0.02475,0.1986
0.9708333,0.0233,0.1991667
0.9697714,0.0236429,0.1938
0.9701,0.021125,0.190675
0.969775,0.02315,0.189175
0.9682,0.0264,0.19685
0.9699,0.02545,0.19205
0.969325,0.024375,0.1881
0.96985,0.0253,0.188975
0.96715,0.029275,0.194825
0.96895,0.026625,0.1888
0.97335,0.02175,0.186525
0.9692,0.0205,0.195225
0.967025,0.022775,0.199075
0.9677,0.02415,0.197225
0.9697333,0.0246333,0.1953333
0.96838,0.02326,0.19748
0.967025,0.02505,0.20125
0.967625,0.025525,0.199375
0.97025,0.0228,0.1952
0.9687,0.0225,0.1947667
0.97264,0.02052,0.19216
0.968225,0.02405,0.19215
0.9696,0.02675,0.19785
0.9702,0.0277667,0.195
0.9713,0.02565,0.1963
0.969,0.02714,0.19944
0.9655,0.02855,0.1975
0.9664333,0.0275667,0.1934333
0.9667,0.0275667,0.1961667
0.96736,0.0234,0.19456
0.9721,0.021825,0.192025
0.969775,0.023425,0.19455
0.9686,0.024075,0.192375
0.971875,0.0215,0.19185
0.96735,0.023875,0.196
0.96545,0.028825,0.197825
0.9751,0.0227,0.19835
0.97035,0.02525,0.182
0.971975,0.022775,0.190425
0.968775,0.024525,0.191075
0.965375,0.02445,0.18995
0.969225,0.02535,0.189475
0.965225,0.02665,0.1957
0.9515,0.03295,0.2037
0.966675,0.022975,0.184625
0.972625,0.0245,0.180475
0.9831,0.025175,0.178025
0.977325,0.025475,0.169225
0.972625,0.02325,0.178225
0.976375,0.0235,0.180725
0.972975,0.02455,0.1842
0.967825,0.024125,0.18065
0.971425,0.022375,0.18465
0.971975,0.0234,0.180475
0.97125,0.023625,0.18465
0.972875,0.021025,0.1878
0.9721,0.020475,0.187875
0.9694,0.021475,0.18945
0.967575,0.020725,0.18695
0.9695667,0.0191,0.1837667
0.97395,0.01925,0.18385
0.9724286,0.0210286,0.1874
0.96955,0.02315,0.187875
0.97075,0.022525,0.186825
0.968,0.02195,0.18795
0.968425,0.024275,0.190925
0.969225,0.025425,0.19905
0.966325,0.0256,0.192025
0.9669,0.02705,0.196875
0.968875,0.023225,0.19005
0.973975,0.02235,0.184275
0.9756,0.021375,0.195
0.9702,0.021625,0.1916
0.968075,0.021125,0.1885
0.9696,0.01865,0.18725
0.96575,0.023775,0.1836
0.97065,0.0194,0.191925
0.96745,0.020775,0.191175
0.958625,0.022825,0.194525
0.958325,0.021825,0.161725
0.9507,0.027125,0.141625
0.97985,0.014125,0.19655
0.982125,0.0126,0.225525
0.9737667,0.0130667,0.2312667
0.97772,0.00794,0.2369
0.968925,0.013925,0.2304
0.965125,0.01795,0.223025
0.965775,0.018375,0.216725
0.9718,0.01595,0.204375
0.973325,0.01945,0.207225
0.9676667,0.0202333,0.2063333
0.962,0.02452,0.20364
0.9643333,0.0225667,0.2035667
0.963775,0.0214,0.2067
0.9698,0.01446,0.20432
0.971475,0.015075,0.208475
0.9694,0.0159,0.2078
0.9648333,0.0159667,0.2082667
0.962175,0.021325,0.206675
0.962225,0.020475,0.2058
0.972575,0.0157,0.207125
0.9693667,0.0185,0.2110667
0.96554,0.0183,0.2081
0.968975,0.02065,0.21105
0.965075,0.023325,0.215175
0.963925,0.024125,0.216
0.9669,0.023175,0.20805
0.970575,0.0229,0.20665
0.970675,0.02305,0.2014
0.973925,0.02045,0.19135
0.97655,0.02695,0.21475
0.956575,0.037875,0.238425
0.957475,0.032375,0.23255
0.973375,0.03225,0.2259
0.977925,0.036975,0.2548
0.95945,0.035375,0.2435
0.949125,0.047175,0.222
0.95225,0.042775,0.2406
0.9119,0.03935,0.187275
0.964025,0.03885,0.1879
0.90785,0.034175,0.26385
0.96965,0.0102,0.22565
0.9798,0.00975,0.214875
0.99,0.043,0.286225
0.9657,0.0632333,0.2793333
0.9345,0.0723667,0.2613
0.9478333,0.0643333,0.26975
0.976725,0.04215,0.255525
0.962075,0.039225,0.2474
0.92865,0.035075,0.25485
0.861175,0.051575,0.276925
0.7387,0.094425,0.257475
1.0544,0.024825,0.20945
1.06965,0.014675,0.294875
1.036075,0.008725,0.260975
0.96405,0.023175,0.27355
1.004725,0.0066,0.2121
1.001375,0.012175,0.24085
0.951325,0.0286,0.32605
0.928925,0.036725,0.27935
0.9276,0.033925,0.2752
0.9535,0.0183667,0.2779
0.95382,0.02008,0.27576
0.928725,0.035975,0.2562
0.95675,0.0145,0.284425
0.952,0.0338,0.3004
0.927375,0.04155,0.1748
0.9616667,0.0282,0.2192
0.94518,0.03712,0.2559
0.977325,0.023025,0.2435
0.9923,0.016325,0.25125
0.9601,0.025275,0.27235
0.9419333,0.0357667,0.2548
0.91936,0.04638,0.231
0.9297667,0.0402667,0.2509
0.93965,0.013075,0.34655
0.947275,0.04015,0.261325
0.98305,0.01085,0.2055
1.000275,0.0067,0.2169
1.006725,-0.00305,0.27515
0.983875,0.0093,0.282475
0.919125,0.041525,0.25105
0.909625,0.042025,0.195025
0.9464333,0.0321667,0.1283
0.96366,0.02282,0.18486
1.0046,0.016075,0.32975
0.982875,0.01355,0.351575
0.98375,0.0066,0.3103
0.97675,0.01,0.180975
0.93155,0.025,0.1429
