accx,accy,accz
0.97154,0.06862,0.1823
0.9697,0.066075,0.171275
0.972475,0.059875,0.168625
0.97165,0.054625,0.15845
0.961325,0.0676,0.156275
0.955525,0.087,0.167225
0.95265,0.105825,0.157575
0.9549,0.1116,0.15535
0.9699,0.1071,0.1478
0.9818,0.1062,0.153175
0.975275,0.10835,0.155
0.9878667,0.1067667,0.1508667
0.973,0.11472,0.16504
0.98565,0.096625,0.141325
0.989375,0.114575,0.133425
0.943975,0.130275,0.17245
0.9198,0.1457,0.1131
0.918675,0.161625,0.110775
0.95015,0.13585,0.1552
0.962875,0.127425,0.1643
0.9453,0.1206,0.164775
0.913875,0.105725,0.154625
0.85565,0.09595,0.095475
0.88335,0.03285,0.106725
1.000075,-0.019425,0.104875
1.06455,-0.06405,0.06045
1.0334,-0.082625,0.118475
1.021225,-0.052425,0.1159
1.036575,-0.02565,0.15335
1.036325,-0.01125,0.1484
1.0359,-0.00725,0.102475
1.0585,-0.0253,0.1039
1.0631,-0.0357,0.1042
1.04145,-0.0475875,0.104175
1.0044333,-0.0551333,0.1153
0.991625,-0.0573,0.1242
0.98025,-0.05075,0.1539
0.98286,-0.0445,0.15722
0.956275,-0.047425,0.154375
0.949725,-0.036075,0.185675
0.9252333,-0.0222,0.1784
0.91,-0.005075,0.1891
0.8946,0.0218,0.178525
0.92214,0.02062,0.2117
0.9752,0.020775,0.199675
0.9776667,0.0337667,0.184
0.9974,-0.008125,0.177125
1.00595,-0.080725,0.096575
1.08325,-0.09965,0.007425
1.153,-0.098575,0.044525
1.2565,-0.011025,0.1289
1.212175,0.0003,0.012625
1.09755,0.052975,-0.222325
1.104625,0.1092,-0.307375
1.200575,0.10585,-0.23035
1.1517,0.129175,-0.142825
0.97845,0.174975,-0.0183
0.874,0.2066,0.068
0.8312,0.2314167,0.09085
0.879075,0.1714,0.04985
0.911525,0.10345,-0.006875
0.954425,0.040025,-0.0302
0.933175,0.005875,-0.0271
0.845225,0.021075,-0.050075
0.76085,0.046,-0.004425
0.720025,0.081225,0.0885
0.78185,0.0872,0.1798
0.8971,0.0832,0.1763
1.0031,0.10912,0.13772
0.954875,0.120325,0.142925
0.8623,0.113125,0.128725
0.8513,0.135675,0.198575
0.849575,0.1763,0.2938
0.882475,0.20255,0.3923
0.9064,0.196475,0.360375
0.925825,0.18255,0.32535
0.9699,0.1719,0.343725
1.072825,0.14165,0.08825
1.1625,0.1727,0.02335
1.164625,0.286525,0.407725
1.16515,0.2761,0.458
1.2799333,0.2144667,0.1300667
1.36682,0.192,-0.08008
1.403475,0.12795,-0.292
1.195125,0.127325,-0.243
0.9621,0.08555,-0.2345
0.7950333,0.0122333,-0.2911667
0.69854,-0.02392,-0.29852
0.63275,0.03255,-0.08565
0.83135,0.065075,0.0369
0.957875,0.1293,0.05815
0.9332667,0.2028,0.1198
0.86155,0.1824,0.069
0.85658,0.10804,-0.05522
0.8698333,0.0553667,-0.0494333
0.88905,0.012975,0.02045
0.89476,-0.02106,0.09052
0.8992333,-0.0230333,0.1001667
0.88835,-0.030975,0.0879
0.872475,-0.04025,0.075675
0.8894,-0.04015,0.064375
0.88815,-0.05685,0.12395
0.928025,-0.025425,0.1376
0.9774,-0.003375,0.1003
1.03235,0.015425,0.026925
1.110625,0.048375,0.03065
1.192575,0.070825,0.1889
1.292875,-0.058625,0.111575
1.363675,-0.07925,-0.086925
1.369425,-0.043925,-0.049025
1.37975,-0.023175,-0.03535
1.3669,0.0354667,-0.1863
1.21216,0.11512,-0.25732
0.972725,0.16505,-0.194225
0.80515,0.22515,0.012725
0.74995,0.264475,0.173875
0.8134,0.302425,0.141925
0.88195,0.3284,0.056575
0.93635,0.251725,-0.039275
0.908725,0.181625,-0.153225
0.835075,0.124275,-0.144625
0.8062,0.0616,-0.0359
0.771225,0.02755,0.069775
0.731525,0.031275,0.1181
0.722975,0.041425,0.118375
0.746925,0.057025,0.1088
0.7691333,0.0801,0.1014667
0.78898,0.11042,0.13964
0.8034,0.143925,0.2079
0.85245,0.139625,0.2902
0.935875,0.108775,0.36505
0.98535,0.076625,0.32935
1.0268,0.060675,0.161375
1.104325,0.105775,0.152025
1.159625,0.117875,0.076225
1.15335,0.227125,0.29515
1.2431667,0.35,0.645
1.34272,0.23542,0.49462
1.505475,0.143675,-0.0364
1.328075,0.076875,-0.21025
1.081975,0.018675,-0.381425
0.905375,0.039725,-0.31845
0.843225,0.016,-0.2678
0.855475,0.066975,-0.0713
0.870175,0.102775,0.054475
0.9840333,0.0516,-0.0765333
1.14378,0.06706,-0.131
1.0871,0.0831333,-0.0204
0.96202,0.0527,-0.0536
0.795375,0.051075,-0.11995
0.6738,0.0506,-0.0533667
0.612525,0.073775,0.055525
0.60218,0.04212,0.2522
0.684275,0.071975,0.231875
0.724025,0.001225,0.194425
0.7675333,-0.0692667,0.1822333
0.87145,-0.07005,0.15995
0.99436,-0.0739,0.1705
1.072925,-0.078525,0.134675
1.09835,-0.091175,0.128525
1.079,-0.0388333,0.1193
1.0834,-0.00275,0.044175
1.086125,-0.05055,0.047025
1.2006,-0.10285,0.179325
1.3201,-0.123125,0.291325
1.4143,-0.0902,0.1694
1.4328333,-0.0530333,-0.0364
1.344025,0.00455,-0.2327
1.17426,0.0968,-0.3393
1.057875,0.185275,-0.20605
0.995425,0.220725,0.009025
1.04355,0.222575,0.07525
1.048,0.244325,-0.000825
1.0549,0.2296,-0.0358
1.030575,0.1992,0.005425
0.97105,0.1476,0.10245
0.784625,0.083175,0.060225
0.6401,0.030025,0.0502
0.475875,-0.0088,0.05315
0.37275,-0.02115,0.0899
0.467825,0.002375,0.185175
0.731575,0.017,0.224475
0.774525,0.06975,0.25485
0.757,0.152825,0.295425
0.786525,0.1879,0.3396
0.891475,0.1697,0.448375
0.9549667,0.1394333,0.3805333
1.00242,0.10432,0.17374
1.100225,0.036125,0.14145
1.2666,0.063,0.12995
1.354475,0.2165,0.5723
1.39185,0.34295,0.662175
1.332025,0.299575,0.237725
1.4081,0.197125,-0.0008
1.374225,0.146425,-0.187275
1.15445,0.10465,-0.28255
1.0438,0.06945,-0.347175
0.986775,-0.017225,-0.320125
0.8431,0.059325,-0.1278
0.82355,0.06545,-0.04265
1.001725,0.082,0.12865
1.0364333,0.1254,0.1928
0.91862,0.07704,0.1042
0.748125,0.05015,0.04115
0.656225,0.029625,0.03195
0.5978,0.023825,0.128775
0.659425,0.02525,0.200725
0.76275,0.03115,0.1985
0.767925,0.018925,0.224175
0.780475,-0.0136,0.16545
0.8308667,-0.0436667,0.1173333
0.95692,-0.08232,0.16446
1.0447667,-0.0662,0.2096667
1.02404,-0.03398,0.15006
1.0020333,0.0183667,0.1006
1.026325,0.03815,0.143575
1.112525,-0.003,0.13405
1.21704,-0.05652,0.13138
1.229175,-0.0533,0.132575
1.229425,0.017,-0.00985
1.3533,0.1524667,-0.1059667
1.33295,0.208025,-0.19705
1.2222,0.24005,-0.1976
1.15805,0.297175,-0.050325
1.233075,0.317675,-0.02895
1.18645,0.30965,-0.0122
1.1176,0.2973,-0.0184667
1.07706,0.21156,-0.02176
0.95315,0.14655,-0.00225
0.8132,0.0993,0.0243
0.694375,0.052875,0.05245
0.5875,0.022,0.0473667
0.51494,0.02054,0.05018
0.474725,-0.00025,0.116575
0.530625,0.026025,0.183525
0.57365,0.086325,0.253625
0.6211,0.120725,0.288825
0.690375,0.115025,0.321975
0.77525,0.10265,0.3734
0.8503,0.103625,0.313875
0.857725,0.0971,0.144825
0.919925,0.1377,0.093175
1.069525,0.187775,0.11795
1.199175,0.25275,0.25575
1.3649,0.386225,0.51305
1.244575,0.470275,0.486575
1.301425,0.22625,0.098175
1.608,0.2176,-0.21205
1.394625,0.179725,-0.245125
1.1897,0.21955,-0.267525
1.11265,0.120975,-0.161175
1.1069,0.0184,-0.225125
1.036625,-0.05755,-0.357025
1.05565,-0.095325,-0.29745
1.138425,-0.006,0.126775
1.020375,0.061775,0.224275
0.886525,0.01465,0.0611
0.6922,0.056275,0.03285
0.563925,0.08585,0.124725
0.512375,0.087325,0.2086
0.6173,0.0473667,0.1786333
0.69646,-0.02722,0.15506
0.795625,-0.114775,0.0936
0.818025,-0.121775,0.033375
0.81425,-0.10315,0.044325
0.9232667,-0.0366333,0.1424333
1.023375,-0.0104,0.225575
1.08096,0.02374,0.17994
1.090425,0.064375,0.051225
1.1535,0.061175,0.14445
1.27625,-0.0784,0.09115
1.3471,-0.1203,0.1237
1.2862333,-0.0984333,0.0844
1.374875,0.020475,-0.0989
1.4366,0.0556,-0.223725
1.258875,0.159325,-0.438625
1.1496,0.2468333,-0.3208333
1.10965,0.2946,-0.154275
1.135425,0.2723,-0.032375
1.07065,0.299375,-0.024525
1.0529,0.2946,0.0303
1.01705,0.2137,-0.00655
0.83435,0.133075,-0.04685
0.654,0.0668,0.023625
0.551925,0.0094,0.052825
0.47905,-0.0467,0.098325
0.450525,-0.07995,0.077575
0.51875,0.01285,0.1404
0.61845,0.087375,0.28125
0.667225,0.1144,0.28735
0.70675,0.153125,0.23935
0.766525,0.167875,0.254
0.8605,0.154975,0.305025
0.979925,0.1466,0.184325
1.078,0.14915,0.0498
1.178325,0.19635,0.11295
1.30485,0.185825,0.074525
1.326575,0.32045,0.441675
1.2716,0.394575,0.65915
1.325,0.369725,0.350475
1.514425,0.24975,-0.060225
1.469875,0.197925,-0.375425
1.2247,0.127,-0.427475
1.051925,0.108225,-0.3194
0.88905,0.02595,-0.330325
0.7952,0.04065,-0.368525
0.795975,-0.005325,-0.265425
1.039875,-0.02,-0.001
1.083075,0.076575,0.16275
0.908775,0.1023,0.067425
0.70825,0.112,0.000675
0.56125,0.11675,-0.0356
0.502975,0.08595,0.058525
0.5573,0.04685,0.166725
0.683875,0.02915,0.120125
0.7478,-0.004575,0.0714
0.801925,-0.018025,0.075575
0.914025,-0.02315,0.115875
1.018775,-0.027025,0.1567
1.11295,-0.056575,0.143075
1.1251667,-0.0537667,0.0911
1.12914,-0.00496,0.08828
1.1648333,0.0523333,0.1036667
1.14076,-0.04254,0.10522
1.1623333,-0.1318,0.0591
1.2691,-0.13622,0.15714
1.3632333,-0.0579667,0.0339
1.36845,0.029425,-0.220875
1.2461,0.0965,-0.39535
1.17875,0.18865,-0.2924
1.1925,0.2407,0.01855
1.19685,0.2049,0.022575
1.10955,0.27575,-0.073475
1.0775,0.300225,-0.086625
1.078625,0.33355,-0.079475
0.975625,0.24805,0.017075
0.75065,0.13505,0.06625
0.6561,0.0462,0.073275
0.54065,-0.028025,0.04995
0.45635,-0.05825,0.034575
0.430925,-0.06,0.106375
0.504875,0.0022,0.2075
0.61195,0.0751,0.24995
0.6368,0.1285167,0.2354167
0.64945,0.189175,0.357575
0.692725,0.1736,0.501425
0.78955,0.13875,0.3737
0.96385,0.06705,0.23935
1.20735,0.0591,0.222525
1.522425,0.058725,0.1914
1.640125,0.2371,0.460675
1.45125,0.4026,0.56565
1.132025,0.404175,0.35495
1.38995,0.2048,-0.045625
1.5887,0.229725,-0.072575
1.276225,0.214075,-0.150475
0.9864,0.2405333,-0.2351333
0.92034,0.11756,-0.33782
0.8789,0.039375,-0.363825
0.771775,0.044175,-0.3473
0.885675,-0.064675,-0.1973
1.00405,0.017175,0.1476
0.948375,0.075,0.136175
0.828675,0.048525,0.00485
0.653475,0.074675,-0.021575
0.525625,0.09525,0.141
0.48175,0.115125,0.2697
0.591175,0.049125,0.2627
0.685775,0.00435,0.215125
0.79625,-0.0704,0.133575
0.919425,-0.07925,0.103425
1.07265,-0.092325,0.174375
1.1087,-0.096875,0.1762
1.04215,-0.0487,0.141975
1.064925,0.050025,0.107825
1.113275,0.029275,0.11895
1.1382,-0.144025,-0.002875
1.284125,-0.179925,0.054375
1.3741,-0.115925,0.08865
1.4175333,0.0815,-0.0585
1.39938,0.13216,-0.24012
1.2367,0.1908333,-0.3544
1.28618,0.25528,-0.19946
1.358325,0.27065,-0.180375
1.2925333,0.3434333,-0.21
1.1711,0.35926,-0.08846
1.048975,0.255525,0.00585
0.92635,0.182175,-0.00075
0.7357,0.149775,-0.009675
0.6243,0.08965,-0.004125
0.5447,0.013925,0.018475
0.45565,0.00375,0.071075
0.4303,0.0096,0.12915
0.48765,0.067525,0.206325
0.5867,0.0881,0.2553
0.6409,0.097775,0.253025
0.682625,0.103825,0.24575
0.735425,0.10615,0.2789
0.82225,0.101475,0.318225
0.9237,0.0726,0.206925
1.00105,0.060175,0.16665
1.081925,0.2074,0.21935
1.240425,0.204775,0.0298
1.316725,0.2987,0.491475
1.29995,0.6026,0.7728
1.388,0.40036,0.25788
1.6224333,0.2449667,-0.1847333
1.597375,0.22385,-0.31655
1.2161,0.1507,-0.431625
0.98595,0.095275,-0.317325
0.822275,0.00285,-0.2474
0.764125,0.05155,-0.183225
0.81975,0.083425,0.0263
1.0712,0.063975,0.073475
1.117025,0.1322,0.1181
0.9385,0.127925,0.09585
0.7516,0.0833,0.00915
0.631175,0.04515,0.016625
0.560275,0.002275,0.0805
0.53075,-0.00305,0.1174
0.6468,-0.0198,0.10155
0.6954333,-0.0148333,0.1060333
0.75766,-0.03504,0.1403
0.864725,0.021125,0.13465
1.00705,-0.007175,0.1937
1.099,-0.03375,0.19485
1.129925,-0.038725,0.1492
1.122,0.053475,0.166925
1.182725,0.084625,0.16205
1.13745,-0.063275,0.1
1.1969,-0.1264,0.0236
1.280775,-0.123125,0.118625
1.410975,0.003,-0.031375
1.443725,0.118225,-0.26675
1.301175,0.13505,-0.372425
1.2543,0.20715,-0.229725
1.241825,0.296025,-0.0203
1.2273333,0.3644,0.0365333
1.11698,0.3807,-0.01326
1.023275,0.363775,0.06395
0.95335,0.15165,0.055525
0.7874333,0.1102,0.0405333
0.68794,0.05334,0.05332
0.59455,-0.06555,0.039575
0.48315,-0.1174,0.038575
0.4223333,-0.1084333,0.0433667
0.47744,0.06484,0.19622
0.5807333,0.1108333,0.2796
0.61888,0.1481,0.23978
0.662625,0.1849,0.23115
0.7166,0.181525,0.28775
0.846625,0.16255,0.29985
0.9764667,0.1509667,0.2676
1.07755,0.13125,0.225475
1.221725,0.16865,0.3511
1.28105,0.177525,0.03895
1.277775,0.24455,0.1569
1.35545,0.416725,0.560225
1.4022,0.453725,0.469175
1.56015,0.226175,-0.071475
1.524475,0.199775,-0.331725
1.199525,0.11765,-0.3841
0.866725,0.097875,-0.263275
0.778675,0.07855,-0.216725
0.836725,0.071325,-0.160375
0.89725,0.099275,-0.006125
1.066075,0.0237,-0.017825
1.1776,0.079175,-0.0359
0.987075,0.0883,0.086725
0.7626,0.0438,0.075025
0.584375,0.06825,0.068
0.507175,0.052675,0.06835
0.456875,0.094125,0.17605
0.6415,0.049125,0.247025
0.7357,0.0217333,0.2438
0.78064,-0.0338,0.18728
0.8528,-0.06045,0.1272
1.0208,-0.04325,0.14625
1.172275,-0.028475,0.15235
1.214575,0.038975,0.117675
1.227225,0.102575,0.2109
1.246125,0.054875,0.17675
1.2369,-0.118775,0.02925
1.297925,-0.164,0.012725
1.385625,-0.068125,-0.0104
1.37005,0.0462,-0.1742
1.182675,0.13485,-0.328575
1.066625,0.246325,-0.32355
1.089925,0.290275,-0.044225
1.198075,0.208275,-0.013325
1.1567,0.21675,-0.0835
1.0667,0.250975,-0.11045
1.0019,0.248775,-0.0821
1.04415,0.228125,-0.073475
0.918025,0.1757,0.017625
0.667025,0.0863,0.11395
0.527275,0.012725,0.15445
0.4369,-0.04455,0.15605
0.40725,-0.0644,0.108075
0.469525,-0.047825,0.130375
0.5714,0.021525,0.222225
0.6304333,0.0507,0.2606667
0.66376,0.09496,0.27766
0.755175,0.118175,0.34595
0.922175,0.13685,0.43265
1.081425,0.135425,0.287
1.1803333,0.1128,0.1462
1.22298,0.1509,0.17404
1.2403667,0.1635333,-0.002
1.222575,0.22805,0.266575
1.232975,0.496325,0.8003
1.314775,0.392525,0.486275
1.46045,0.296625,0.086925
1.49935,0.3248,-0.050075
1.157075,0.21795,-0.165575
1.18,0.1757,-0.178175
0.978775,0.04465,-0.11325
0.835925,0.02725,-0.0777
0.81485,-0.051925,-0.108325
1.076725,-0.132425,-0.1228
1.03705,0.027,0.08065
0.87065,0.0426,0.196925
0.7248667,0.0256667,0.1094667
0.59274,0.0656,0.05314
0.499775,0.103875,0.1233
0.5656,0.1037,0.233975
0.7217,-0.0007667,0.2628
0.74762,-0.03164,0.1878
0.83115,-0.099725,0.117275
0.874625,-0.1035,0.099925
0.95895,-0.122275,0.0986
1.0469,-0.088575,0.044275
1.0392,0.01395,0.06095
1.09,0.081175,0.193175
1.1832667,0.0886667,0.2178333
1.15546,-0.04314,0.13642
1.2222,-0.1209,0.0082
1.319125,-0.132125,0.110625
1.425725,-0.073275,0.022025
1.438975,0.035925,-0.17425
1.32255,0.08705,-0.365825
1.1622,0.15255,-0.307775
1.1512,0.190675,-0.071425
1.16095,0.214425,0.001925
1.12895,0.3041,-0.0188
1.08315,0.3543,-0.0207
1.048975,0.273775,-0.039325
0.891625,0.14065,-0.07465
0.68085,0.09225,-0.055325
0.6000333,0.0946,0.0212667
0.50004,0.0653,0.12838
0.3989333,0.0264333,0.1865
0.38948,0.00918,0.19286
0.496975,0.054975,0.199175
0.6248,0.056825,0.2653
0.674125,0.0773,0.2796
0.7358,0.09685,0.283775
0.84345,0.09035,0.311425
1.00265,0.08005,0.3486
1.1109,0.1004,0.2892
1.1847,0.12115,0.2573
1.2349,0.134075,-0.0299
1.298725,0.262325,0.29805
1.286175,0.43285,0.763825
1.41075,0.4869,0.3761
1.55995,0.32705,0.0332
1.632075,0.193725,-0.264875
1.389575,0.165425,-0.405225
0.9886,0.140475,-0.329575
0.845025,-0.007525,-0.2155
0.78895,-0.0093,-0.205075
0.72175,0.00205,-0.15275
0.8763,-0.00045,-0.004375
1.082075,0.0308,0.00755
0.96125,0.063925,0.080275
0.833725,0.07425,0.099875
0.67815,0.109925,0.02565
0.592175,0.0461,-0.032725
0.560475,-0.00405,0.041675
0.640925,-0.0334,0.0989
0.6885,-0.046325,0.1588
0.7379,-0.043375,0.138975
0.82835,-0.0127,0.09425
0.9735,0.003,0.1323
1.065875,-0.010125,0.160475
1.11425,-0.019,0.122375
1.12315,-0.0115,0.1294
1.16195,0.041325,0.142525
1.16555,-0.03565,0.08345
1.1501,-0.111175,-0.01405
1.2414,-0.1961,0.139
1.344,-0.15085,0.110875
1.391475,-0.036375,-0.2119
1.2958,0.06195,-0.4262
1.21795,0.176175,-0.345425
1.253575,0.1749,-0.06225
1.29445,0.200925,-0.072425
1.235575,0.3559,-0.096025
1.121875,0.32045,-0.0533
0.994475,0.259775,-0.014025
0.847425,0.159025,0.01325
0.7157333,0.1100333,-0.0006
0.6567,0.0254,-0.01932
0.5973333,-0.0313333,-0.0286
0.5066,-0.03496,-0.01668
0.452775,0.009875,0.0758
0.534675,0.064175,0.1962
0.66685,0.08895,0.279125
0.6773,0.07105,0.2314
0.67865,0.0353,0.18885
0.759625,0.060675,0.221775
0.900625,0.088125,0.296275
0.98635,0.091625,0.2241
1.12855,0.127225,0.281375
1.34535,0.16205,0.332575
1.387075,0.2322,0.37145
1.29255,0.472125,0.610925
1.090525,0.3468,0.541725
1.4839,0.162725,-0.0147
1.60905,0.091275,-0.0512
1.4114,0.1126333,-0.1156667
1.12884,0.1068,-0.22392
0.84865,0.047175,-0.27235
1.0170667,-0.0213333,-0.3286667
0.83244,0.06886,-0.11362
0.91555,-0.021425,-0.0706
1.1325667,-0.0412333,-0.0896667
1.02985,0.016975,0.045925
0.896675,-0.01035,0.06285
0.719675,0.035375,0.01445
0.589325,0.06735,-0.00695
0.548425,0.031825,0.057825
0.617125,0.009,0.149925
0.70365,0.0063,0.160375
0.741975,-0.008875,0.157175
0.79355,-0.0376,0.1543
0.912525,-0.05155,0.150225
1.01305,-0.0696,0.154525
1.0095,-0.071675,0.072875
0.986275,-0.0619,0.037175
1.01345,-0.02615,0.146625
1.0978,0.002,0.175975
1.1212,-0.121525,0.106975
1.15345,-0.20695,-0.005975
1.25075,-0.23995,0.07135
1.343525,-0.102975,0.050375
1.415025,0.003425,-0.124875
1.31125,0.054675,-0.253825
1.2049,0.143225,-0.277475
1.23595,0.1688,-0.1284
1.3041,0.165175,-0.039025
1.231575,0.2481,-0.097375
1.131025,0.2771,-0.119225
1.016825,0.22135,-0.075875
0.88745,0.15065,-0.05875
0.75895,0.07415,-0.018175
0.695,0.050425,0.057175
0.626875,0.02115,0.110325
0.572575,-0.000375,0.1523
0.545675,0.0096,0.16905
0.57565,-0.0042,0.124375
0.635125,0.051325,0.170025
0.702725,0.075225,0.22935
0.751125,0.12015,0.23935
0.788875,0.1347,0.2826
0.831975,0.12645,0.322925
0.86575,0.0974,0.295325
0.872125,0.077725,0.18195
0.9744667,0.0791333,0.0900667
1.1155,0.08574,0.03678
1.265925,0.225375,0.492525
1.448425,0.33905,0.628325
1.30135,0.2327,0.3555
1.5385667,0.0795333,-0.0072333
1.53192,0.05582,-0.11524
1.34075,0.0257,-0.1236
1.028425,0.092575,-0.14855
0.9034667,0.0923333,-0.1448667
0.8091,-0.0091,-0.2441
0.7529667,0.0532333,-0.2469333
0.76064,0.0802,-0.0859
1.09038,-0.0085,-0.0827
1.1419333,0.0577,0.0027333
1.00902,0.06046,-0.02578
0.8517333,0.0388667,-0.0465
0.79005,0.038675,-0.083175
0.74225,-0.0039,-0.056075
0.728125,-0.013325,0.03225
0.78675,-0.016475,0.103375
0.840225,-0.02185,0.1526
0.854575,-0.0427,0.132
0.854675,-0.080475,0.0659
0.87365,-0.109875,0.06225
0.92325,-0.10805,0.093875
0.9436,-0.0743,0.116375
0.974025,-0.068975,0.14295
0.973825,-0.0393,0.114725
0.961525,-0.016025,0.12275
1.00485,0.015275,0.04875
1.01065,-0.104225,0.05095
1.109125,-0.219,0.01455
1.22355,-0.243475,0.0516
1.369425,-0.068125,0.05685
1.4031,-0.007225,-0.1024
1.312675,0.0091,-0.278075
1.229875,0.090025,-0.236675
1.17635,0.1834,-0.1346
1.174175,0.223125,-0.058875
1.139175,0.260675,-0.056525
1.0901,0.298975,-0.03505
1.054125,0.2504,-0.03055
0.97165,0.1263,-0.1337
0.852025,0.067725,-0.088825
0.76775,0.01655,0.026725
0.67295,0.014775,0.12085
0.61395,0.003425,0.164125
0.589625,0.0022,0.197475
0.6747,0.048525,0.2116
0.760725,0.042675,0.1998
0.80055,0.0615,0.1586
0.820725,0.06005,0.1477
0.8534,0.0721,0.158975
0.90225,0.0604,0.23155
0.9456667,0.0556667,0.2938667
0.90326,0.06876,0.23622
0.8379,0.110775,0.119475
0.918275,0.157475,0.066275
1.041075,0.147575,0.01765
1.155125,0.21185,0.26335
1.3398,0.2623,0.497325
1.242075,0.20605,0.419675
1.381775,0.071075,0.1691
1.440375,-0.03195,0.113375
1.4140333,-0.0711,0.0863
1.13,0.0824,-0.16106
0.9139,0.05165,-0.1453
0.759625,0.0059,-0.1725
0.781725,0.019175,-0.19825
0.7516,0.0942667,-0.0761333
0.9008,0.088225,-0.0431
1.12088,0.0834,-0.0508
1.1246,0.1208333,-0.0176333
1.06095,0.103325,-0.047875
0.990875,0.090625,-0.113075
0.893075,0.05175,-0.075975
0.794,-0.0107,-0.015
0.750875,-0.008175,0.0034
0.78625,7.5e-05,0.019275
0.85885,-0.000625,0.03805
0.9319667,-0.0151333,0.0848667
0.96306,-0.02014,0.05414
0.995875,-0.0327,0.007125
1.0164,-0.04185,-0.0007
1.0005,-0.024425,0.033075
0.9977,-0.027025,0.115225
0.99405,-0.058775,0.1209
0.9801,-0.101875,0.0007
0.946675,-0.076725,-0.03145
0.90745,-0.0704,0.004625
0.8745667,-0.1053333,0.0297
0.9119,-0.12785,-0.0174
1.00922,-0.12666,0.01806
1.089625,0.05065,0.027825
1.14275,0.076325,0.1171
1.20705,-0.014375,0.0403
1.1995,-0.02665,-0.071725
1.1922,0.022175,-0.11175
1.188175,0.02655,-0.11045
1.1409667,0.0892667,-0.1121667
1.034375,0.130575,-0.050475
0.90716,0.1577,0.04228
0.8709,0.192425,0.0867
0.91105,0.14465,0.0779
0.969775,0.1036,0.025375
0.988475,0.08775,0.01885
0.9771333,0.0741,0.0039333
0.94252,0.0629,-0.0012
0.903825,0.130475,0.0606
0.89895,0.166575,0.132025
0.8989,0.169325,0.154975
0.88795,0.15895,0.1542
0.929825,0.0954,0.10685
0.988925,0.074975,0.036225
0.9928,0.0983667,0.0748667
0.98062,0.10868,0.25646
1.013225,0.097425,0.366825
0.98335,0.145425,0.26445
0.926575,0.1358,0.14625
0.8590667,0.1732,0.1336667
0.86544,0.1905,0.18198
0.977675,0.1431,0.21085
0.9922,0.1138,0.24
0.949775,0.1331,0.262825
0.933925,0.0717,0.162375
0.91846,-0.00432,0.3127
0.9782,-0.0736333,0.3970667
0.93364,-0.00422,0.43068
0.8591667,-0.0252333,0.4229333
0.807175,0.12265,0.406175
0.80245,0.21555,0.4299
0.864725,0.223175,0.4151
0.908425,0.209225,0.406975
1.00004,0.14568,0.37288
0.9966,0.1529333,0.2909
0.9846,0.1412,0.25755
0.97135,0.12735,0.240675
0.947975,0.127775,0.284075
0.924875,0.10415,0.2799
0.914525,0.07685,0.287425
0.9107333,0.0567667,0.2666333
0.92654,0.04716,0.23922
0.95975,0.064325,0.235175
0.98145,0.08485,0.29615
0.97755,0.126375,0.272475
0.9439,0.1184,0.224525
0.945875,0.08405,0.2208
0.952725,0.0673,0.1965
0.9542,0.06465,0.201025
