accx,accy,accz
0.99528,0.05722,-0.00334
0.96428,0.05382,0.0156
0.973,0.039925,0.006025
0.96635,0.025075,-0.022025
0.94965,0.013175,0.0136
0.94165,0.00355,0.040675
0.9491667,0.0069333,0.0407
1.0133,0.01002,0.06346
1.063275,0.0105,0.09675
1.0615,0.0111,0.106
1.009625,0.027875,0.093175
0.942,0.0258333,0.0482667
0.90952,0.03188,0.06726
0.8715,0.0512,0.05455
0.8877667,0.0430333,0.0579
0.91876,0.05228,0.09474
0.920075,0.084625,0.122475
0.92455,0.095025,0.1579
0.96445,0.0985,0.2476
1.006375,0.08005,0.2958
1.02705,0.063375,0.27485
1.030625,0.0627,0.196375
1.0427,0.07205,0.182
1.0428333,0.0971,0.1756833
1.02805,0.11005,0.1423
0.9939333,0.1120667,0.1608667
0.94228,0.08866,0.16288
0.907625,0.070725,0.160075
0.926575,0.067575,0.1503
0.978275,0.076975,0.218
0.952425,0.102475,0.238025
0.92475,0.130525,0.2284
0.934325,0.15985,0.27815
0.921575,0.16645,0.29405
0.921925,0.154175,0.307675
0.9369667,0.1279667,0.3099667
0.99814,0.10402,0.32622
1.042675,0.10465,0.325375
1.064325,0.125025,0.328425
1.088675,0.1428,0.31395
1.1138667,0.1447333,0.2958
1.09452,0.1382,0.31448
1.0272,0.12105,0.32525
0.983475,0.09055,0.272625
0.99565,0.070075,0.147675
1.08025,0.13785,0.002925
1.12635,0.250075,-0.123275
1.083925,0.2728,-0.259125
1.0738333,0.2031667,-0.0778667
0.9691,0.14325,0.019775
0.867825,0.072225,-0.06645
0.833225,0.0196,-0.144875
0.839775,0.016975,-0.090175
0.8811,0.07675,0.02055
0.93485,0.13715,0.12385
0.9427,0.1656,0.1844
0.92675,0.1176,0.122475
0.940975,0.076925,0.02625
0.899225,0.063375,0.076175
0.869275,0.050175,0.1028
0.912025,0.0162,0.0984
0.888075,-0.004525,0.174675
0.8867,-0.0291333,0.1987333
0.89662,-0.0098,0.20856
0.936025,0.0014,0.223425
0.915375,0.02425,0.1996
0.8918,0.052625,0.131375
0.982575,0.068675,0.147775
0.984975,0.0688,0.233525
1.013725,0.05975,0.302875
1.08825,0.063925,0.294675
1.073725,0.02975,0.2074
1.174475,-0.02835,0.17015
1.169275,-0.016475,0.3002
1.15835,-0.003175,0.556975
1.263825,0.035625,0.489875
1.1911,0.116575,0.11015
0.994075,0.1925,-0.24005
0.888475,0.22285,-0.419925
0.898925,0.24115,-0.380175
0.95585,0.278225,-0.078925
1.0331,0.3102,0.1415
0.934225,0.319425,0.18505
1.02,0.27125,-0.003475
0.947575,0.195375,-0.089625
0.79685,0.1406,-0.108525
0.7572,0.1189,-0.0824
0.765825,0.12245,0.0092
0.883,0.095875,-0.03975
0.95485,0.091775,0.001675
0.8231667,0.1152333,0.0227
0.79474,0.13572,-0.01822
0.75645,0.13665,0.02295
0.8146,0.1373,0.055225
0.88965,0.13205,0.084775
0.903375,0.1222,0.144375
0.947575,0.09005,0.14535
0.9947333,0.0607,0.1922333
1.05794,0.04214,0.21562
1.11785,0.037625,0.14045
1.15235,0.052075,0.1679
1.229725,0.054025,0.244975
1.1740333,0.0691,0.2567667
1.08185,0.0518,0.22655
1.1291,-0.001475,0.062925
1.19136,0.14008,-0.2575
1.197875,0.322425,-0.1937
1.2904,0.3589,-0.12205
1.34664,0.25904,-0.24402
1.170625,0.1502,-0.36595
0.939425,0.002075,-0.290225
0.8462,-0.06595,-0.2551
0.81865,-0.0085,-0.271575
0.8374,0.0511,-0.167425
0.8198,0.10325,0.043425
0.808025,0.107625,0.0942
0.785825,0.103825,-0.014875
0.710225,0.1238,-0.013775
0.6877,0.134575,0.00975
0.862575,0.068375,0.011025
0.936525,0.04335,0.036
0.9249,0.01125,0.068175
0.909675,-0.0264,0.040225
0.902425,-0.075325,0.046075
0.88035,-0.0368,0.105
0.90615,-0.019175,0.1523
0.98565,0.0253,0.16435
1.068225,0.0759,0.172175
1.08915,0.105825,0.189
1.12565,0.071625,0.1434
1.154625,0.0436,0.11455
1.169725,0.044,0.180125
1.240175,0.0872,0.321825
1.273725,0.15025,0.176825
1.0253,0.280725,-0.1594
0.91085,0.28,-0.3226
1.02555,0.1925,-0.253025
1.16115,0.091125,-0.175675
1.18855,0.108525,-0.10135
1.095125,0.1875,-0.00675
1.057725,0.2019,0.055175
0.9686,0.154225,0.0455
0.829575,0.16855,-0.04325
0.77225,0.121425,-0.03215
0.749875,0.042175,0.040825
0.7225,0.0161333,0.1158333
0.72116,0.03694,0.16062
0.6998667,0.0719667,0.1118333
0.6989,0.09178,0.04438
0.7463,0.1123,0.0872333
0.81994,0.12742,0.17752
0.874175,0.1415,0.214
0.8703,0.1266333,0.2281667
0.92616,0.11556,0.20112
1.05355,0.074,0.2477
1.1578333,0.0691667,0.2221667
1.23878,0.08124,0.17136
1.3277333,0.1010667,0.1889
1.36054,0.07714,0.3399
1.2118,0.0578667,0.4022333
1.0775,0.037775,0.34005
1.05704,-0.02176,0.26828
1.0214,0.0109333,-0.0971667
1.026675,0.1468,-0.37715
1.11145,0.26655,-0.316275
1.17925,0.3356,-0.269925
1.1274,0.2895,-0.21788
0.833675,0.139025,-0.1524
0.6955333,0.064,-0.0766333
0.732425,0.038525,0.0317
0.909025,0.0946,0.012975
0.96915,0.167625,-0.037975
0.91622,0.08116,0.02816
0.8132333,0.0117333,0.1135333
0.739825,-0.00085,0.121775
0.7072,0.020975,0.07065
0.739625,0.013,-0.00165
0.85255,-0.022275,0.061075
0.8987,-0.019125,0.11305
0.97485,0.0131,0.103625
1.0184,0.007575,0.12505
1.04375,-0.005575,0.16445
1.034125,-0.023875,0.145475
1.036475,-0.03795,0.179575
1.07005,-0.0134,0.215575
1.0571,0.03035,0.22455
1.0417,0.01465,0.213675
1.04455,-0.0327,0.223825
1.1408,-0.01225,0.305875
1.28785,0.0833,0.284625
1.20015,0.20795,-0.0004
1.01045,0.2052,-0.217875
1.068325,0.173975,-0.2848
1.1156667,0.1705333,-0.2495333
1.11735,0.171825,-0.149125
1.1043333,0.1558,-0.0429
1.01895,0.2876667,0.0660833
1.002275,0.18845,0.048
0.9651333,0.1344667,-0.0224
0.91346,0.09472,-0.05462
0.841675,0.035875,-0.05525
0.804875,0.041225,0.031075
0.787725,0.04915,0.1343
0.737425,0.0547,0.09315
0.709075,0.0713,0.045
0.70635,0.073325,0.0335
0.704875,0.12045,0.0784
0.7673333,0.1646333,0.0987
0.88298,0.15128,0.17562
0.9843,0.150025,0.217025
1.057725,0.184225,0.16205
1.113225,0.1853,0.105975
1.2000333,0.1416333,0.0573
1.33442,0.09242,0.0998
1.3697,0.0617667,0.2359333
1.1729,0.06104,0.36238
1.0565,0.0206667,0.3449333
1.049,0.01098,-0.0734
1.0402,0.1177667,-0.4714667
1.099825,0.238875,-0.3832
1.204175,0.2914,-0.250875
1.134525,0.263925,-0.3275
1.014025,0.1538,-0.263375
0.89815,0.0636,-0.1973
0.831675,0.008375,-0.109975
0.9023,0.0284,-0.102125
0.983575,0.053775,-0.15525
0.9329,0.0964,-0.037475
0.772075,0.109075,0.07525
0.619875,0.11575,0.073125
0.6432,0.079925,0.0291
0.730825,0.029475,0.02675
0.778075,-0.010775,0.083575
0.8539,-0.037025,0.08675
0.8890667,-0.0578333,0.0799667
0.93016,-0.06404,0.07548
1.001375,-0.049125,0.099575
1.0485,-0.027775,0.1325
1.08565,-0.0203,0.1583
1.14105,0.0066,0.172975
1.163975,0.0141,0.18035
1.142525,0.0281,0.156425
1.126575,0.01925,0.19
1.168075,0.03805,0.2845
1.168525,0.122525,0.19845
1.029125,0.2156,-0.159575
0.9602,0.188075,-0.345425
1.013575,0.15355,-0.3507
1.011675,0.1153,-0.180125
0.9428,0.168225,-0.087975
0.88155,0.2684,-2.5e-05
0.93185,0.305525,0.162875
1.027475,0.24425,0.104525
1.0432667,0.2117667,-0.0597667
1.06046,0.17362,-0.10792
1.063825,0.066225,-0.0428
0.946,0.026475,0.086925
0.832325,0.023575,0.095825
0.74885,-0.0011,0.0659
0.660225,-0.009525,0.05485
0.62445,0.00795,0.0258
0.67165,0.049625,0.091325
0.7816,0.084175,0.18805
0.84475,0.1203,0.22455
0.833925,0.1398,0.179925
0.845125,0.1316,0.14155
0.934775,0.104275,0.212425
1.05365,0.083125,0.247975
1.1861,0.09105,0.199175
1.3349,0.0742333,0.2431333
1.29978,0.0409,0.30852
1.214275,0.003125,0.20175
1.23905,0.070575,-0.34695
1.30055,0.216925,-0.6136
1.4368333,0.3769667,-0.4521667
1.55324,0.3833,-0.1746
1.3997667,0.2123333,-0.1371667
1.09036,-0.00124,-0.165
0.9359333,-0.1944333,-0.0493333
0.90944,-0.11166,-0.16018
0.855925,0.01735,-0.250125
0.7854,0.063225,0.080275
0.7533,0.0754,0.2123333
0.6901,0.05855,0.070575
0.54365,0.08625,0.000825
0.50506,0.09842,-0.01952
0.60685,0.088725,0.006575
0.7375667,0.0454667,0.0376
0.8435,0.013925,0.096275
0.886225,-0.035425,0.132225
0.904625,-0.048375,0.09925
0.9986,-0.03435,0.0787
1.082325,-0.010625,0.19825
1.1541,0.01385,0.35435
1.221375,0.00775,0.316525
1.19485,0.008,0.161475
1.160325,-0.02575,0.174775
1.1801,0.04815,0.286175
1.239575,0.199775,0.1396
1.085325,0.230325,-0.2409
1.017675,0.230475,-0.354725
1.1238,0.1375,-0.233975
1.240775,0.1274,-0.158425
1.232775,0.211725,-0.17915
1.136125,0.277625,-0.073725
1.015675,0.25905,0.0199
0.898225,0.198825,-0.015925
0.767375,0.16175,-0.083625
0.7024,0.0822333,-0.0850333
0.65162,0.02028,0.01928
0.667275,-0.0099,0.15405
0.695225,0.01545,0.15175
0.7021,0.023525,0.121775
0.7108,0.041775,0.144425
0.746025,0.065675,0.178375
0.83955,0.101925,0.176375
0.948325,0.118175,0.222675
1.014975,0.1227,0.224775
1.059,0.11515,0.259925
1.116,0.09845,0.255725
1.19525,0.0745,0.189075
1.27715,0.074775,0.23895
1.270975,0.057575,0.399675
1.165625,0.0104,0.40875
1.1112333,-0.0342667,0.2192
1.12918,-0.02924,-0.38702
1.102575,0.12715,-0.5397
1.1917,0.366975,-0.16715
1.3852667,0.4258333,-0.1279667
1.38106,0.2903,-0.25076
1.08275,0.093575,-0.2235
0.8781,-0.050475,-0.077575
0.881,-0.04505,-0.03545
0.9462333,0.0317,-0.1033333
0.93708,0.0694,-0.04636
0.8124,0.0893,0.040925
0.657925,0.1142,0.05565
0.53015,0.1343,0.028375
0.51365,0.13165,0.023525
0.657825,0.0864,0.035225
0.7647,0.0476,0.0577333
0.81432,0.01416,0.1455
0.85385,-0.046825,0.19735
0.888175,-0.076975,0.1316
0.9311,-0.0707,0.1312
1.0051333,-0.0415333,0.2396
1.083375,-0.009775,0.295125
1.16476,0.02364,0.24354
1.2520333,-0.0149667,0.2605333
1.266625,-0.00175,0.3189
1.2222,0.065075,0.3106
1.281775,0.148925,0.197775
1.22125,0.305625,-0.2081
1.0552,0.29575,-0.325075
1.0398,0.179025,-0.227475
1.092925,0.100475,-0.129975
1.108975,0.13535,-0.043075
1.031075,0.22845,0.004075
1.054225,0.28155,0.0432
1.0365,0.205075,0.07515
0.99875,0.16115,0.0268
0.9352333,0.0899667,-0.0418333
0.81404,0.0298,0.00536
0.71655,0.006,0.134425
0.69665,0.01325,0.156575
0.6807,0.010575,0.09835
0.655975,0.044475,0.088225
0.667525,0.0894,0.12455
0.741,0.1051,0.179575
0.824725,0.080025,0.213725
0.875425,0.07505,0.1816
0.90035,0.09325,0.139225
1.010025,0.062325,0.2188
1.12785,0.0388,0.268425
1.218425,0.021625,0.201075
1.33345,0.00815,0.25955
1.35405,-0.038275,0.452775
1.229775,-0.0547,0.423075
1.231425,-0.06935,0.033575
1.17985,0.009725,-0.3852
1.098425,0.1812,-0.480275
1.33155,0.30475,-0.22005
1.50545,0.17485,0.00785
1.1986,0.10415,0.056425
0.8775667,-0.0014,-0.0152
0.74275,-0.04585,-0.0925
0.74508,0.0585,-0.18188
0.7814,0.124725,-0.215025
0.7755333,0.1134333,-0.0518667
0.70585,0.096475,0.10405
0.64574,0.10382,0.08176
0.626175,0.09865,0.007
0.678875,0.089,0.00975
0.78675,0.060775,0.027225
0.879275,0.008575,0.094825
0.92835,-0.04405,0.17625
0.9205,-0.071175,0.19965
0.940325,-0.065525,0.1257
1.0105333,-0.0184667,0.1394333
1.09296,-0.00366,0.24192
1.1729,0.0113333,0.3487333
1.20216,-0.03388,0.32382
1.2147,-0.045,0.2827
1.17885,0.0041,0.29065
1.1936,0.11566,0.2215
1.258625,0.27915,-0.19785
1.0821333,0.3077667,-0.2044333
1.075125,0.17905,-0.163425
1.1773,0.086325,-0.1337
1.196775,0.142025,-0.04635
1.07245,0.227025,0.07855
1.0555,0.263325,0.2022
1.0132,0.1713,0.19045
0.90485,0.10855,0.07905
0.75885,0.0838,-0.051425
0.6601,0.024,-0.0357333
0.59692,-0.02134,0.02232
0.5984,-0.027775,0.09285
0.6707,-0.0085333,0.1139
0.73534,0.03396,0.11542
0.778375,0.06685,0.159625
0.826825,0.078525,0.218325
0.888325,0.095075,0.236275
0.95185,0.095475,0.221475
0.992125,0.10445,0.1842
1.027275,0.106075,0.230525
1.09865,0.089225,0.233925
1.20495,0.0658,0.1569
1.3087333,0.0605333,0.2206667
1.317375,0.025175,0.44505
1.19998,-0.05422,0.60378
1.151675,-0.088075,0.377525
1.216525,-0.01605,-0.208025
1.0873,0.10795,-0.515575
1.117225,0.251425,-0.2651
1.273975,0.256175,-0.0315
1.19275,0.1518,-0.034925
0.96965,0.06525,0.057425
0.7478333,-0.0205333,0.0378667
0.7104,-0.0626,-0.08552
0.8258333,0.0139333,-0.2473333
1.06862,0.0769,-0.33754
1.09065,0.1191,-0.11645
0.9011,0.0970333,0.1834333
0.76624,0.07298,0.25232
0.63895,0.083075,0.06675
0.535775,0.080175,0.002225
0.667475,0.02535,0.06175
0.7389667,0.0068667,0.1117333
0.806475,-0.030775,0.191975
0.87615,-0.053975,0.238425
0.97524,-0.05974,0.23076
1.099975,-0.0195,0.2131
1.1748,0.0299333,0.2013
1.1977,0.037675,0.249
1.1957,-0.03446,0.2997
1.17615,-0.060375,0.25475
1.139825,-0.060675,0.2961
1.1413,0.0999,0.1327
1.107275,0.2147,-0.248975
0.984125,0.190475,-0.410875
1.030325,0.0968,-0.221575
1.227875,0.044675,-0.0007
1.190475,0.192,0.0312
1.142225,0.281625,0.125725
1.153575,0.3025,0.260975
1.0822,0.22925,0.161125
0.9678,0.174125,-0.014025
0.876625,0.0827,-0.08065
0.785125,0.0055,-0.03685
0.65175,-0.040325,0.04525
0.57285,-0.0517,0.154875
0.57975,-0.05465,0.201425
0.578825,-0.00765,0.1146
0.6142333,0.0445,0.0972333
0.68872,0.09532,0.23358
0.804225,0.120925,0.26945
0.90835,0.108525,0.139375
0.989125,0.1287,0.174925
1.11785,0.14815,0.257125
1.299,0.103875,0.216
1.4676,0.03825,0.20485
1.485975,0.017375,0.389975
1.253025,0.012175,0.435125
1.0855667,-0.0226333,0.3656333
1.0537,-0.07182,-0.00356
1.028425,0.060625,-0.479075
1.108725,0.212625,-0.24255
1.308575,0.281825,0.00615
1.3009,0.1489667,0.006
1.06132,0.03348,-0.0408
0.85585,-0.064175,-0.152925
0.871825,-0.015575,-0.2165
0.954875,0.086125,-0.170225
0.9740333,0.1295,-0.0370333
0.9487,0.13262,0.06868
0.750925,0.154975,0.0678
0.546,0.16345,0.04775
0.5167,0.1342333,0.0494667
0.5815,0.0669,0.052425
0.59978,-0.00588,0.05298
0.62995,-0.07055,0.0834
0.7479,-0.1527833,0.1302833
0.952125,-0.21875,0.192225
1.08705,-0.18065,0.26475
1.1779667,-0.0979333,0.2553
1.2885,-0.0402,0.31248
1.367575,0.021075,0.40025
1.4309,0.0242,0.3649
1.4173,-0.0171667,0.3216333
1.3864833,-0.0029667,0.3189167
1.173375,0.0828,0.233225
1.0494,0.186375,0.083425
0.9221333,0.2868333,-0.2164667
0.80554,0.1878,-0.21884
1.030575,0.1041,-0.21055
1.288775,0.093675,-0.160375
1.26235,0.124525,-0.131475
1.0407667,0.1735,0.0039333
0.86096,0.19966,0.07952
0.854625,0.21915,0.07455
0.943775,0.176775,-0.00655
0.961225,0.0917,-0.0749
0.8653333,0.023,-0.0365333
0.730225,-0.00195,0.016125
0.61566,-0.02494,0.05318
0.596825,-0.02445,0.112225
0.667,-0.0216333,0.1964
0.72735,-0.00815,0.22515
0.76725,0.0122,0.239325
0.811075,0.0589,0.333
0.836075,0.104175,0.327325
0.85205,0.09125,0.103475
0.88195,0.076475,0.213575
1.0425,0.0743,0.395225
1.253075,0.0413,0.31615
1.419225,0.02175,0.239225
1.4653,-0.01985,0.371325
1.247875,-0.006575,0.5076
1.18315,-0.046725,0.3476
1.2224,0.00415,-0.217325
1.17075,0.108225,-0.47275
1.249275,0.254725,-0.352625
1.40635,0.2405,-0.147225
1.2831667,0.2206667,-0.0231
0.88218,0.12188,-0.03046
0.611125,-0.034325,-0.10775
0.540825,-0.020875,-0.19065
0.70335,0.081575,-0.235075
0.8861,0.1010333,-0.1723
0.94624,0.10442,0.02312
0.908675,0.0748,0.1652
0.7722,0.11745,0.217925
0.6764667,0.1542,0.2022
0.65488,0.11654,0.18126
0.717325,0.050425,0.1468
0.7934,-0.0135333,0.0945333
0.84628,-0.07852,0.067
0.8874333,-0.1056667,0.0960333
0.9404667,-0.0664667,0.1341
1.0479333,-0.0125667,0.1541
1.17535,0.0278,0.1913
1.27325,0.015275,0.2989
1.3512667,-0.0237667,0.3691333
1.296375,0.008475,0.4366
1.1875,0.07204,0.5192
1.218475,0.2075,0.12855
1.089,0.345975,-0.28185
1.0156667,0.2565,-0.2968
1.0815333,0.1726667,-0.1928333
1.1379333,0.1585333,-0.1020667
1.09015,0.205975,-0.1484
0.906275,0.26395,-0.081875
0.7748333,0.2705333,-0.0055667
0.74322,0.22184,0.00324
0.779425,0.18435,-0.02215
0.834425,0.092575,-0.021375
0.85505,0.017825,0.042825
0.7895667,-0.0187667,0.1278
0.7279,-0.0431,0.2073333
0.7137667,-0.0403167,0.2570167
0.74145,0.024075,0.266275
0.7917,0.08005,0.2412
0.8355,0.0962333,0.2308667
0.87502,0.09078,0.18698
0.9314333,0.0572,0.1716333
0.98505,0.087675,0.300075
1.042725,0.1337,0.40635
1.165875,0.122675,0.304425
1.398675,0.07455,0.3093
1.419175,-0.001525,0.428825
1.21785,-0.055675,0.40465
1.184925,-0.138,0.148475
1.12365,0.00755,-0.31805
1.0837333,0.2177333,-0.5498
1.31744,0.30534,-0.2438
1.4251,0.20275,0.0667
1.104075,0.1078,0.0959
0.87995,-0.005275,0.02325
0.823825,-0.027175,-0.0712
0.9359,0.066875,-0.2513
0.981375,0.104425,-0.359475
0.85885,0.11805,-0.14395
0.663075,0.124775,0.077225
0.50735,0.1339,0.148475
0.44265,0.144175,0.1522
0.529475,0.087075,0.0973
0.630025,-0.001325,0.0581
0.724175,-0.029925,0.080225
0.867275,-0.04095,0.100975
0.964925,-0.01375,0.1735
1.011875,0.0169,0.24845
1.110575,0.006825,0.2281
1.2830667,-0.0305333,0.2196333
1.39074,-0.0809,0.29914
1.341825,-0.0923,0.293525
1.242575,-0.037775,0.21125
1.133825,0.087925,0.3525
1.1233,0.310175,0.20855
1.063525,0.433275,-0.21105
0.98525,0.28625,-0.289325
1.0679,0.16055,-0.161725
1.192625,0.154725,-0.182025
1.2571,0.2050333,-0.3636
1.08732,0.2012,-0.15572
0.96225,0.18065,0.160925
0.91265,0.126975,0.28215
0.912025,0.0556,0.214525
0.782,-0.0101667,0.122
0.67388,-0.0184,0.08202
0.652625,-0.016825,0.101225
0.647725,-0.0052,0.0983
0.5144667,0.0535333,0.0892667
0.7574,0.054,0.1987
0.76598,0.07876,0.23426
0.7592333,0.1153,0.2780333
0.860325,0.10205,0.1932
0.97108,0.10486,0.21348
1.0995,0.12485,0.28665
1.187625,0.136825,0.395725
1.2360167,0.1093833,0.3124833
1.3913,0.04865,0.287375
1.3191667,0.0140333,0.4075333
1.116425,-0.003325,0.4727
1.056975,-0.038575,0.445825
1.156975,0.0038,0.03565
1.02812,0.20662,-0.24418
1.1917333,0.2405667,-0.2037333
1.196725,0.261925,-0.238425
1.125475,0.168175,-0.058825
0.943625,-0.0042,0.061075
0.81015,-0.03375,-0.001725
0.8165,0.011975,-0.016975
0.9725,0.00395,-0.049175
1.060225,0.01565,-0.060175
0.892625,0.0778,0.1556
0.707375,0.1161,0.2259
0.6369,0.109275,0.162725
0.67195,0.08035,0.0981
0.761325,0.00935,0.03355
0.79315,-0.010725,0.11515
0.8275,-0.04355,0.204625
0.881225,-0.08715,0.19735
0.97575,-0.09735,0.157825
1.0422,-0.0794,0.213725
1.051675,-0.068025,0.239625
1.044575,-0.023875,0.268725
1.04095,0.010125,0.2469
1.055925,-0.02225,0.2141
1.105725,-0.029875,0.177925
1.109475,0.013125,0.298775
1.1725333,0.0552333,0.3867333
1.25542,0.16064,0.10544
1.0512,0.3003667,-0.1536333
0.96864,0.25128,-0.12782
1.129925,0.1654,-0.113375
1.223325,0.097825,-0.059075
1.1562,0.1317,-0.0685
1.08304,0.24406,0.03316
1.0926,0.19665,0.15855
1.0187667,0.1402333,0.1208667
0.9195,0.11108,0.01614
0.77925,0.02515,0.054475
0.6993667,-0.0124333,0.0980333
0.65448,-0.01638,0.14834
0.6726333,0.0060333,0.1826333
0.710525,0.0319,0.158125
0.736125,0.0647,0.10665
0.77412,0.10758,0.11842
0.86485,0.13045,0.191
0.9083,0.1444,0.253625
0.932425,0.124775,0.234325
0.953,0.1006333,0.2353333
0.98184,0.065,0.23762
1.0553667,0.0324333,0.1841667
1.204925,0.0275,0.2054
1.4251,0.011975,0.378475
1.386,0.02246,0.46812
1.1880667,-0.0086333,0.4434333
1.088275,-0.0702,0.219725
0.978525,0.019525,-0.08245
0.9704,0.2057,-0.1561
1.1837,0.229975,-0.045375
1.275675,0.261275,-0.106675
1.1726,0.13775,-0.137525
0.9847,-0.0264,-0.099775
0.85045,-0.07845,-0.02725
0.8683,-0.05445,-0.00515
0.944725,0.0204,0.0593
0.8868,0.1353,0.1121
0.766825,0.15905,0.168675
0.6988,0.13635,0.141125
0.6222,0.0724,0.06475
0.6311667,0.0214333,0.0368667
0.75978,-0.03246,0.12718
0.861725,-0.062875,0.1974
0.897725,-0.07585,0.202
0.933475,-0.0784,0.20905
0.993225,-0.086025,0.2352
1.005275,-0.0481,0.27145
1.038025,-0.002925,0.265025
1.065225,0.0323,0.291275
1.029125,0.034575,0.2378
1.011,-0.006,0.259
1.028975,-0.042175,0.236375
1.054875,-0.02255,0.274425
1.134675,0.039825,0.37195
1.1655,0.16775,0.1299
1.0741,0.3235667,-0.1330667
1.13124,0.24802,-0.21606
1.2476,0.1667,-0.209275
1.250075,0.14355,-0.087925
1.157225,0.1865,0.151225
1.150225,0.22035,0.243975
1.1069,0.13455,0.22415
0.97485,0.080125,0.156275
0.88935,-0.0418,0.0907
0.755,-0.087675,0.044375
0.629325,-0.074125,0.077625
0.5937,-0.008625,0.1512
0.6303333,0.0353667,0.2061667
0.7004,0.08192,0.17054
0.738625,0.1155,0.15915
0.781325,0.11445,0.180975
0.8151667,0.1136,0.1948667
0.8618333,0.1107667,0.2139
0.95754,0.0958,0.25576
1.04274,0.08368,0.2995
1.106275,0.053025,0.28125
1.145825,0.023525,0.203575
1.248075,-0.0046,0.215175
1.26395,-0.0005,0.462875
1.1808,-0.0019333,0.4948667
1.151275,-0.061225,0.3908
1.066275,-0.094325,0.117425
0.99182,0.07226,-0.22188
1.0687,0.1739667,-0.0827333
1.2051,0.2437,-0.0704
1.270075,0.182325,-0.135
1.1874667,0.0218,-0.1180333
1.0667667,-0.0936,-0.0413
0.9536714,-0.1423143,-0.0383714
1.0078333,-0.0803333,0.0040333
1.030525,0.0119,0.04165
0.93466,0.1031,0.1621
0.7819667,0.1269333,0.1743667
0.65315,0.0985,0.113675
0.5459,0.070825,0.061425
0.62695,-0.00115,0.06125
0.7684667,-0.0525333,0.1087
0.85842,-0.06592,0.16638
0.954675,-0.065275,0.17345
0.98035,-0.06085,0.171075
0.96905,-0.052125,0.16245
0.9803,-0.054875,0.1768
0.96665,-0.00405,0.199475
0.976125,0.030725,0.209025
0.9859,0.0054,0.2249
1.050375,-0.043425,0.1672
1.1369,-0.1142,0.288025
1.1998,-0.08285,0.405275
1.200775,0.0475,0.321525
1.07605,0.260025,-0.0919
0.945025,0.30505,-0.14155
1.054075,0.173975,-0.10335
1.140325,0.1095,-0.099275
1.215025,0.102225,-0.19645
1.237875,0.189,-0.171625
1.2092667,0.1736333,0.1969
1.14576,0.14772,0.36382
1.02755,0.109125,-0.0037
0.89805,-0.007875,0.009075
0.7961,-0.0829333,0.0990333
0.69036,-0.06532,0.16062
0.6879,0.00515,0.17745
0.727175,0.05115,0.18475
0.74905,0.06445,0.17135
0.7521,0.082675,0.13005
0.7546333,0.1054667,0.1491667
0.76538,0.11272,0.2163
0.7942,0.099525,0.205675
0.853275,0.0522,0.2298
0.928,0.0177,0.2630333
1.04772,0.01018,0.24992
1.20665,0.026675,0.228775
1.30965,0.044975,0.2711
1.3377,0.054375,0.33295
1.1877333,0.0443333,0.6075333
1.09818,-0.07608,0.43974
1.05325,-0.0946,-0.013025
0.99255,0.1026,-0.3572
