accx,accy,accz
1.00202,0.12648,0.06612
0.96525,0.136525,0.081425
0.9603333,0.1434667,0.0811
0.954325,0.1549,0.118925
0.97324,0.15774,0.17498
0.9359,0.16345,0.164575
0.9287,0.165475,0.166575
0.9527333,0.1897333,0.1537333
0.995925,0.17445,0.0906
1.03824,0.14528,0.11844
1.0335,0.147275,0.13135
1.0048,0.123875,0.101825
0.9698667,0.1186333,0.0780667
0.98315,0.123025,0.1559
0.98536,0.089,0.19036
0.908175,0.06545,0.1941
0.832775,0.074125,0.234025
0.7454,0.0750667,0.2337
0.862975,0.08735,0.3371
0.87456,0.09612,0.35638
0.85695,0.0805,0.381925
0.8220667,0.1106667,0.3220333
0.825425,0.0908,0.35385
0.843425,0.0831,0.342175
0.87576,0.08624,0.34634
0.9557,0.079925,0.394475
1.0392,0.0877667,0.3844333
1.073975,0.070775,0.3486
1.0933667,0.0279667,0.2453667
1.1041,0.03992,0.32162
1.08325,0.12865,0.343425
1.19565,0.235825,0.265375
1.376775,0.247425,0.10185
1.239275,0.185475,-0.077275
1.101025,0.254625,-0.247775
0.9733,0.229325,-0.2544
0.974675,0.1136,-0.25345
1.0432,0.0041,-0.1907667
1.0852,-0.0719,-0.1366
1.13855,-0.0379,-0.1616
1.160375,0.073725,-0.0804
1.1237,0.23765,0.101425
0.9899333,0.2660667,0.1128
0.86372,0.2301,0.03624
0.760275,0.0985,-0.02325
0.6962,-0.0028,-0.0672
0.58715,-0.043125,-0.0596
0.55935,-0.051325,-0.03615
0.6435,-0.086025,-0.00235
0.714725,-0.0703,0.058575
0.798475,-0.085725,0.113075
0.875525,-0.1202,0.120925
0.9637333,-0.0952,0.1983667
1.00348,-0.04498,0.1197
1.081475,0.0028,0.1523
1.08795,0.03215,0.154875
1.16995,-0.023875,0.15795
1.2585667,-0.0937,0.0756667
1.28098,-0.06298,-0.18348
1.359325,-0.004875,-0.2313
1.407325,0.10225,-0.110225
1.29395,0.2147,-0.10715
1.13326,0.16848,-0.13586
1.07252,0.07486,-0.106
1.013075,0.088475,-0.021475
1.055675,0.09875,0.006925
1.104325,0.0578,-0.04195
1.1174333,-0.0097333,-0.0689667
1.05834,-0.0483,-0.02298
1.02195,-0.0869,-0.0219
0.9435,-0.1097,-0.011825
0.8153333,-0.1056333,-0.0174
0.6702,-0.064575,-0.00405
0.53784,-0.0072,0.00568
0.496975,0.08015,-0.0015
0.56775,0.134275,0.06115
0.6629,0.18595,0.092125
0.7608,0.2082,0.1527
0.8501,0.19288,0.14728
0.87505,0.15755,0.09775
0.8881667,0.1360333,0.0439333
0.94275,0.09935,0.008075
1.095475,0.05355,0.0301
1.34145,0.02895,0.0714
1.5853,0.093,0.07955
1.7565,0.110825,0.035725
1.349425,0.058575,-0.247175
0.957075,0.007075,-0.337975
0.90585,-0.017575,-0.302025
0.99924,-0.08068,-0.19596
1.0021333,-0.0765667,-0.2116667
0.98265,-0.03325,-0.198225
1.0257667,-0.0121333,-0.0906
1.09194,0.03806,-0.05578
1.104,0.1493,-0.021375
0.982975,0.208,0.03675
0.8726,0.1931,-0.009075
0.75995,0.132425,-0.0376
0.702425,0.036075,-0.059675
0.63585,-0.0556,-0.089875
0.58875,-0.0786,-0.03615
0.66295,-0.132725,0.04215
0.7589333,-0.1762333,0.1071667
0.82376,-0.18598,0.0635
0.8736,-0.13255,0.068775
0.977425,-0.045025,0.1916
1.0674,0.0428667,0.2263333
1.15202,0.0771,0.21346
1.206925,-0.010675,0.07655
1.2165,-0.112725,-0.06065
1.259675,-0.11245,-0.21155
1.408925,-0.00795,-0.1436
1.3912,0.0603,-0.0305
1.2334,0.131025,-0.035375
1.107775,0.057375,-0.136625
1.048975,0.01405,-0.205925
1.04365,0.046375,-0.1366
1.0827,0.059625,-0.029375
1.064575,0.0483,0.028625
1.09455,0.012425,0.06085
1.06725,-0.013325,0.037225
0.9044,-0.028625,0.03835
0.71055,-0.070325,0.01825
0.6064,-0.0918,0.0197667
0.544375,-0.050725,0.025375
0.466875,0.01045,0.00755
0.4157,0.117875,0.027225
0.490575,0.17245,0.106575
0.638375,0.1911,0.10715
0.78564,0.20734,0.17464
0.9346,0.2033,0.1696
1.03375,0.176825,0.1445
1.0832,0.121525,0.0895
1.19074,0.0353,0.09368
1.3728667,-0.0825,0.1366667
1.53076,-0.05266,0.2122
1.4988,0.1058667,0.2400667
1.3612,0.2859,0.186825
1.28145,0.2788,-0.082475
1.208875,0.13215,-0.344925
0.9907,0.0047,-0.5561
0.987175,-0.067875,-0.494675
1.046,-0.0992,-0.5452
1.0736,-0.10282,-0.4233
1.1564,-0.07695,-0.29175
1.238075,0.0008,-0.0702
1.101425,0.192775,0.033925
0.9071333,0.2387667,0.0654333
0.6749,0.1956,0.02278
0.54445,0.055775,0.008475
0.48805,-0.0363,-0.0251
0.473075,-0.079675,-0.031375
0.4899667,-0.0535667,0.0597667
0.54684,-0.05346,0.11384
0.70565,-0.088725,0.153775
0.873175,-0.144825,0.137775
0.950525,-0.15655,0.101825
0.9927667,-0.1429,0.104
1.08524,-0.0743,0.11898
1.237175,-0.021,0.191125
1.35695,-0.068475,0.15575
1.361,-0.129175,0.094125
1.3462333,-0.1554333,-0.1305667
1.42218,-0.08946,-0.29768
1.475925,0.02645,-0.12995
1.359525,0.104075,-0.0934
1.178475,0.0945,-0.20225
1.004825,0.07415,-0.374875
0.963275,0.107325,-0.24545
0.947725,0.121,-0.0948
0.977475,0.013825,-0.044925
1.015175,-0.0402,0.0328
1.02245,-0.078725,0.01275
0.96885,-0.150375,0.026825
0.848975,-0.1772,0.045825
0.63195,-0.080625,0.020825
0.473675,0.019975,0.03675
0.36325,0.05785,0.014025
0.3942,0.06165,0.0018
0.505475,0.1219,0.0628
0.6721,0.200775,0.2141
0.8360667,0.209,0.2342667
0.95148,0.16442,0.12362
1.075325,0.0295,-0.02195
1.18605,-0.09315,0.04805
1.318175,-0.137375,-0.020075
1.490225,-0.02805,0.106725
1.612525,0.164925,0.21385
1.44795,0.282825,0.0032
1.282875,0.18775,-0.113275
1.05465,0.016875,-0.33945
0.97775,-0.131275,-0.4619
1.030325,-0.184,-0.499075
1.0292667,-0.1658,-0.5094
1.0549,-0.11662,-0.31818
1.117775,-0.038925,-0.18695
1.1731667,0.0691667,-0.0216333
1.15975,0.1283,0.0847
0.9846286,0.1943857,0.0233
0.7551667,0.1964,-0.0189333
0.65698,0.0748,-0.0452
0.6106333,-0.0347,-0.1115333
0.5972,-0.12426,-0.11176
0.5319,-0.1596667,-0.1184333
0.511575,-0.19935,-0.073025
0.63335,-0.2074,0.0818
0.738675,-0.18395,0.1387
0.758225,-0.13735,0.13305
0.7803,-0.0892,0.13475
0.89245,-0.023275,0.21185
1.04195,0.0478,0.155
1.180275,0.0542,0.15935
1.231825,-0.047975,0.08235
1.264025,-0.152725,-0.06175
1.3131,-0.17625,-0.1
1.3767,-0.0803,-0.25015
1.435775,0.039025,-0.019275
1.50025,0.09635,0.206025
1.283525,0.152275,-0.14455
1.26115,0.017525,-0.340825
1.2985,-0.03145,-0.289575
1.250325,-0.0847,-0.20525
1.129325,-0.086475,-0.085875
0.997475,-0.05305,-0.047375
0.876075,-0.0438,0.015
0.729625,-0.0964,0.042375
0.6206,-0.10475,0.0328
0.5634,-0.0461,0.02625
0.535475,0.00495,-0.013975
0.45445,0.078325,-0.08545
0.46735,0.166775,0.035225
0.589575,0.199475,0.117625
0.7056,0.17445,0.0713
0.843925,0.149425,0.096575
0.9502,0.10485,0.149175
1.0202,0.057275,0.1303
1.083625,-0.000925,0.070325
1.1944333,-0.0917333,0.0665333
1.48946,-0.10012,0.1634
1.73855,0.11435,0.288175
1.47855,0.1559,-0.0391
1.179525,0.140325,-0.2258
0.996225,0.0763,-0.25415
0.9316667,-0.0558,-0.434
1.14014,-0.1903,-0.47144
1.2089,-0.08725,-0.317075
1.144525,-0.065225,-0.2488
1.0539333,0.0456667,-0.1869
1.10694,0.09772,-0.0981
1.0305667,0.1608,-0.0494333
0.88284,0.21134,0.00238
0.7339,0.126075,-0.057475
0.688225,-0.003175,-0.127075
0.6022333,-0.0747667,-0.1193333
0.5541,-0.06305,-0.077475
0.557825,-0.0665,-0.050925
0.6016,-0.044,0.0123
0.679425,-0.039475,0.135425
0.738225,-0.058275,0.17125
0.8782,-0.0995333,0.0745333
0.93175,-0.1237,0.095775
1.029575,-0.05625,0.1471
1.145,0.0155,0.1685
1.310375,-0.0253,0.185125
1.369375,-0.15345,0.01545
1.3237,-0.17655,-0.282275
1.3123,-0.082975,-0.286625
1.37945,0.004825,-0.12115
1.4075,0.059875,-0.04535
1.2793,0.087125,-0.134725
1.1116,0.08045,-0.3167
1.0282,0.076275,-0.1829
1.0074,-0.013525,-0.1316
0.9694667,-0.0065667,-0.1307333
0.97166,-0.1011,-0.13252
0.993475,-0.100575,0.0065
0.959025,-0.1042,0.01875
0.8628,-0.091475,0.01115
0.7299,-0.056825,0.006075
0.629275,-0.020225,0.0043
0.54485,0.005375,-0.05655
0.489125,0.07345,-0.02935
0.5311,0.138625,0.0628
0.65965,0.14805,0.150025
0.821575,0.119525,0.161825
0.929375,0.101625,0.143825
0.965375,0.0776,0.06385
0.96545,0.0348,0.01665
1.0447,-0.034775,0.0172
1.3371,-0.14535,0.0587
1.60835,-0.109975,0.120925
1.61575,0.056875,0.113275
1.36755,0.128325,-0.082425
1.218875,0.07565,-0.171575
1.0335,0.026575,-0.339725
0.971,-0.0604,-0.412075
1.003025,-0.08,-0.361125
0.995575,-0.064525,-0.26465
0.981925,-0.03195,-0.176925
1.01585,0.006775,-0.11805
1.07415,0.046425,-0.056775
1.0695,0.0922333,-0.0646
0.9268,0.1284,-0.02332
0.7645,0.1142,-0.0315
0.686725,0.012575,-0.081375
0.620775,0.010225,-0.0937
0.6230333,-0.0553667,-0.0833333
0.61386,-0.06278,-0.069
0.6399333,-0.0715333,-0.0531
0.74766,-0.1121,-0.00948
0.8880667,-0.1805333,0.0662667
0.94736,-0.19408,0.0212
0.9988,-0.1459333,0.0194333
1.08738,0.01186,0.18198
1.1600333,0.0973667,0.2590333
1.190075,0.04285,0.235425
1.19765,-0.048275,0.103775
1.207225,-0.114875,-0.20155
1.32124,-0.09714,-0.27896
1.41195,0.03825,-0.07365
1.3480667,0.1106,-0.0897333
1.196375,0.109,-0.201425
1.0596,0.0605,-0.326125
1.034125,0.011,-0.27105
1.0566,-0.0153,-0.082425
1.115875,-0.031875,-0.004
1.099325,-0.0633,-0.049475
1.027325,-0.072175,-0.00215
0.912825,-0.08145,0.0394
0.75145,-0.069725,0.055875
0.60285,-0.073825,-0.00815
0.5058,-0.018525,-0.0279
0.462125,0.018325,-0.043275
0.498875,0.0679,0.0042
0.57775,0.133525,0.0544
0.68985,0.176275,0.094675
0.821925,0.18675,0.12455
0.93575,0.178425,0.1087
0.99285,0.140475,0.05455
1.00445,0.100325,0.021725
1.09645,0.039425,0.052
1.330425,-0.09595,0.07785
1.6094,-0.156325,0.1352
1.5811,-0.024075,0.1188
1.442075,0.1152,0.0915
1.306475,0.030575,-0.147175
1.08605,-0.033575,-0.3235
0.960725,-0.0916,-0.49795
0.982725,-0.0339,-0.461375
0.982675,0.048075,-0.336
1.03175,0.0487,-0.2596
1.0400333,0.0506,-0.1885333
1.02998,0.05588,-0.13024
0.9556,0.12235,-0.017025
0.893175,0.129475,0.023075
0.8316,0.0596333,-0.0258
0.73192,0.0021,-0.05234
0.656275,-0.0707,-0.0544
0.6277333,-0.1208,-0.0599333
0.580375,-0.064525,-0.037175
0.598375,-0.064325,0.002775
0.67395,-0.092175,0.057425
0.77508,-0.1323,0.0738
0.89645,-0.15515,0.0132
0.9754,-0.1101,-0.026175
1.0592667,-0.0735333,-0.0028
1.1632,0.0178,0.05724
1.25335,0.02385,0.0313
1.2559333,-0.0069,0.0301833
1.2710333,-0.1092667,-0.1760667
1.312325,-0.090375,-0.237325
1.365025,0.00055,-0.0693
1.38096,0.01744,-0.03036
1.2205667,-0.0674333,-0.258
1.111475,-0.112025,-0.375225
1.01255,-0.112625,-0.211725
0.957125,-0.053075,-0.14725
1.06715,-0.003,-0.046
1.055,-0.03695,-0.072775
0.983625,-0.05335,-0.105325
0.956025,-0.1095,-0.095725
0.893675,-0.119875,-0.089175
0.754925,-0.07355,-0.0772
0.670225,-0.0196,-0.02045
0.595225,-0.010075,-0.08485
0.502175,0.064675,-0.102525
0.456475,0.1417,0.001525
0.5187,0.192175,0.04805
0.6541,0.214275,0.1137
0.840325,0.146175,0.1317
0.95095,0.091825,0.065525
1.032475,0.055725,0.04795
1.129075,-0.03035,0.012275
1.239925,-0.083175,0.01245
1.50485,-0.17395,0.06505
1.57825,-0.050775,0.058025
1.489825,0.107,0.015225
1.3358,0.11535,-0.1346
1.122175,0.03815,-0.335325
0.94795,-0.0438,-0.62225
0.9837,-0.05795,-0.5845
1.039825,-0.0657,-0.425275
1.076775,-0.078075,-0.338075
1.079475,-0.027075,-0.306
1.111125,0.0348,-0.1905
1.057475,0.099125,-0.129725
0.92365,0.153,-0.0884
0.834,0.114525,-0.089075
0.7366,0.0581,-0.115275
0.66,-0.0071,-0.137
0.587975,-0.0494,-0.104775
0.50305,-0.04245,-0.09935
0.512125,-0.05365,-0.0599
0.6293,-0.0973,-0.00725
0.75735,-0.13365,0.0447
0.80745,-0.15745,0.051525
0.869175,-0.17375,0.038675
0.914025,-0.106825,0.032725
1.02655,-0.075375,0.062625
1.2431,-0.04315,0.042025
1.42125,-0.061825,0.08215
1.404775,-0.13445,-0.20865
1.39005,-0.15335,-0.40965
1.426125,-0.1171,-0.2642
1.42395,-0.0736,-0.1697
1.24465,-0.020475,-0.292725
1.008925,-0.015675,-0.445175
1.0087,-0.014525,-0.353775
0.99065,-0.008925,-0.204475
1.0695,-0.0703,-0.054525
1.0763,-0.093675,-0.07945
0.99415,-0.0685,-0.1654
0.9461,-0.0831667,-0.0972667
0.84804,-0.08522,-0.06582
0.7155,-0.048075,-0.12335
0.601675,0.008725,-0.1038
0.515775,0.022175,-0.146425
0.4693333,0.0331,-0.1562333
0.4581,0.075525,-0.1151
0.5985,0.10338,0.0104
0.7471,0.0455667,0.0749
0.813175,0.080525,0.126825
0.941825,0.0468,0.075325
0.987425,0.087975,0.004675
1.0424,0.0427,-0.0419
1.19935,0.00195,0.005125
1.415075,0.010375,0.065975
1.52995,0.0526,0.043725
1.428225,0.10825,-0.09805
1.4075667,0.0930667,-0.1018
1.4164,0.05156,-0.08978
1.037425,0.11855,-0.385925
0.8952333,0.0487667,-0.5462333
0.9013,-0.02468,-0.58168
0.9715,-0.0647,-0.4903
1.009725,-0.070525,-0.4125
1.02995,-0.025425,-0.3034
1.05865,0.00965,-0.161675
1.02565,0.041875,-0.1608
0.95345,0.068925,-0.13585
0.849725,0.06215,-0.08065
0.710925,0.056075,-0.1118
0.60975,0.01735,-0.12165
0.537,-0.028475,-0.1726
0.51335,-0.052375,-0.15695
0.491025,-0.03105,-0.045625
0.589575,-0.063775,0.07345
0.70615,-0.13085,0.0379
0.8557,-0.1891,-0.045525
1.046575,-0.195525,-0.057925
1.1633,-0.118425,-0.00105
1.203275,-0.04485,0.003975
1.24195,0.0032,-0.024125
1.233825,-0.08635,-0.030325
1.1853,-0.128775,-0.166425
1.192125,-0.128325,-0.37345
1.287,-0.032125,-0.356375
1.381525,0.085925,-0.1666
1.4014,0.0124,-0.2032667
1.12802,-0.00132,-0.46884
0.9799,-0.0017,-0.432
0.974625,0.03715,-0.273725
1.0546,0.0412333,-0.1693667
1.15038,-0.03288,-0.06828
1.16825,-0.146,-0.118025
1.087725,-0.1501,-0.213925
1.002825,-0.143375,-0.20175
0.864825,-0.120925,-0.1288
0.658425,-0.025725,-0.10885
0.5827,-0.03085,-0.107025
0.4741,0.0109667,-0.1058333
0.40794,0.06544,-0.03194
0.4084333,0.1269667,0.0537333
0.5238,0.14675,0.05595
0.681475,0.1389,0.0149
0.799175,0.140425,-0.011475
0.90535,0.1246,-0.025525
1.03955,0.103575,-0.00475
1.1592,0.08,-0.018475
1.27465,0.0181,-0.025875
1.430825,-0.03685,0.012325
1.41135,-0.0096,0.031675
1.25985,0.1455,0.0978
1.1666,0.2069,0.0178
1.365275,0.185875,-0.06205
1.371225,0.077075,-0.300675
1.063575,0.101325,-0.5044
0.86825,0.0226,-0.57945
0.85525,-0.046375,-0.62635
0.8665,-0.03655,-0.488425
0.945875,-0.0391,-0.328625
1.02545,0.000125,-0.2988
1.1374,0.003,-0.23695
1.11975,0.093275,-0.174225
1.03415,0.146775,-0.072075
0.88085,0.110075,-0.055775
0.7491,0.052,-0.134925
0.649025,-0.0008,-0.165575
0.5971,-0.035425,-0.1723
0.5572,-0.0309,-0.114375
0.55515,-0.03445,-0.0557
0.559675,-0.0369,-0.032925
0.688625,-0.10405,-0.00345
0.792975,-0.12735,0.0417
0.9042,-0.158525,0.06755
0.9891,-0.15235,0.0226
1.025125,-0.06745,-0.009375
1.178375,-0.016275,0.04855
1.293475,-0.0146,0.066325
1.3665,-0.05385,0.036475
1.361075,-0.09545,-0.151775
1.3389,-0.1081,-0.322925
1.2844,-0.023575,-0.37735
1.305675,0.022725,-0.233875
1.280225,-0.02065,-0.04255
1.024725,-0.13725,-0.409175
0.88995,-0.1733,-0.54805
0.875075,-0.173475,-0.36775
0.8362,-0.124125,-0.2185
0.9069333,-0.1299333,-0.0856
1.0162,-0.13288,0.03924
1.07375,-0.1518,-0.068225
0.9967667,-0.0918667,-0.1506333
0.901925,-0.089325,-0.105425
0.80726,-0.0198,-0.03988
0.74325,0.00505,-0.0184
0.62305,0.0203833,-0.1399833
0.46495,0.07235,-0.190525
0.4654,0.092875,-0.111625
0.583125,0.09465,-0.00285
0.76085,0.105525,0.0727
0.8994,0.0940667,0.1269
0.97255,0.0737,0.04305
1.0764,0.05018,-0.03334
1.2179,-0.0247667,0.0210667
1.326175,-0.057125,0.029625
1.4318,-0.1081,0.04305
1.419225,-0.07805,-0.06995
1.371625,0.071725,-0.083625
1.34915,0.084675,-0.19515
1.15035,0.050225,-0.326525
0.9744667,-0.0161333,-0.4911333
0.91376,-0.04386,-0.46962
0.952,-0.0369,-0.41585
1.003375,-0.0182,-0.343225
1.03185,0.019375,-0.27735
1.022875,0.0336,-0.21985
1.0203,0.061975,-0.1606
0.980675,0.083275,-0.110525
0.903,0.085725,-0.100675
0.80295,0.0124,-0.139175
0.684375,0.001275,-0.127375
0.6209,-0.0448,-0.155275
0.559,-0.04955,-0.079
0.537,-0.031275,-0.0279
0.58095,-0.029825,0.008825
0.721875,-0.092525,0.060775
0.856225,-0.136075,0.04855
0.9799,-0.148425,0.0431
1.03235,-0.1002,0.03175
1.124275,-0.003725,0.077025
1.269,0.020275,0.088
1.309975,-0.01835,0.031825
1.27135,-0.0949,-0.132275
1.278375,-0.1095,-0.29105
1.345725,-0.026475,-0.25525
1.31265,0.032625,-0.1992
1.1999667,0.0741667,-0.2258333
1.05814,0.00556,-0.43018
1.073475,-0.02065,-0.436
1.1545,-0.027775,-0.2285375
1.10115,-0.132425,-0.05155
0.93975,-0.16345,-0.111375
0.839175,-0.150125,-0.10285
0.804375,-0.1488,-0.060725
0.716225,-0.069875,-0.0909
0.6218,0.0159,-0.078225
0.545525,0.05885,-0.132875
0.529475,0.070875,-0.171875
0.57685,0.11355,-0.02295
0.637025,0.14295,0.047325
0.7346667,0.1312667,0.0520333
0.822875,0.122275,0.06505
0.927075,0.106825,0.06705
0.97364,0.00798,0.02388
1.0459667,-0.0384333,0.0627
1.1443,-0.057675,0.084875
1.3251,-0.08796,0.04962
1.5514,-0.0599333,0.1139333
1.57135,0.116175,0.149025
1.404825,0.1204,-0.09935
1.2823,0.030925,-0.22725
1.142725,-0.037275,-0.4072
1.0102,-0.041175,-0.528975
0.93805,-0.002925,-0.529225
0.89885,0.025775,-0.352425
0.869725,0.0338,-0.255275
0.8959,-0.0051,-0.203625
0.97895,0.041925,-0.122025
0.987675,0.13035,-0.10525
0.922125,0.1662,-0.06335
0.831825,0.1303,-0.096575
0.788075,0.067825,-0.162025
0.7174,0.01465,-0.1954
0.6973,-0.046125,-0.190325
0.66765,-0.054625,-0.161875
0.66825,-0.0429,-0.095425
0.682075,-0.0425,-0.0442
0.749775,-0.07735,-0.007125
0.849325,-0.13035,0.042375
0.956775,-0.156025,0.03495
1.05865,-0.124475,0.0261
1.127275,-0.0385,0.05845
1.16775,0.049725,0.0474
1.223575,0.026475,0.037875
1.2326,-0.04265,-0.116675
1.19935,-0.1067,-0.385325
1.24535,-0.071425,-0.397125
1.375,-0.0676,-0.215025
1.34195,-0.002375,-0.142425
1.10745,-0.038875,-0.37585
1.042875,-0.025175,-0.3314
1.0615,-0.050675,-0.231075
1.0761,-0.100075,-0.13345
1.090375,-0.15015,-0.07295
0.98675,-0.14425,-0.178
0.8908,-0.1123,-0.15415
0.827025,-0.094125,-0.08615
0.75455,-0.045475,-0.090575
0.67365,0.033,-0.06785
0.6272,0.046875,-0.109175
0.574275,0.072825,-0.1489
0.571125,0.1131,-0.0963
0.6114667,0.1508333,-0.0148
0.72968,0.13138,0.01468
0.85085,0.10735,0.028325
0.9402,0.068025,0.0043
1.0004,0.033975,-0.021475
1.038425,0.0204,-0.004475
1.0744,-0.0197,-0.0100667
1.18136,-0.07614,-0.01746
1.4122,-0.09905,0.016125
1.52405,-0.0132,0.066975
1.454325,0.02125,-0.0224
1.280925,-0.008125,-0.1467
1.08085,-0.104875,-0.367975
0.945225,0.046375,-0.4083
0.925875,0.113975,-0.3211
0.9053333,0.14,-0.2870333
0.88135,0.1248,-0.318725
0.90385,0.0588,-0.301175
0.899275,-0.025775,-0.338625
0.92235,0.005475,-0.25345
0.994075,0.05595,-0.172975
1.0098,0.06545,-0.15165
0.92555,0.05435,-0.174
0.8234,-0.033725,-0.190875
0.725125,-0.05725,-0.14175
0.657325,-0.08775,-0.132525
0.654075,-0.119225,-0.117375
0.6574667,-0.1025,-0.0592667
0.71396,-0.10038,0.00812
0.805525,-0.09855,0.059875
0.8847,-0.106025,0.082875
1.0048,-0.1352,0.040775
1.07765,-0.125225,0.0247
1.0709,-0.06765,0.02485
1.1076,0.02005,0.06055
1.16505,0.013575,0.0527
1.19655,-0.03315,-0.0394
1.205675,-0.100475,-0.223575
1.2692,-0.1015,-0.2911
1.37235,-0.043975,-0.14265
1.34945,0.0262,-0.105525
1.12395,0.0729,-0.259275
1.02585,0.02335,-0.344625
1.009675,-0.001925,-0.246975
0.997875,-0.020075,-0.156175
1.0604,-0.07755,-0.063525
1.078675,-0.109675,-0.116
1.0140333,-0.0746333,-0.1611667
0.98682,-0.0775,-0.08118
0.891675,-0.066425,-0.06475
0.80085,-0.01715,-0.0523
0.6861,0.033425,-0.044525
0.620675,0.0397,-0.0856
0.57865,0.0474,-0.0806
0.6006,0.07895,-0.002525
0.680175,0.097475,0.062
0.7736,0.0858667,0.0818333
0.865575,0.0522,0.0555
0.94546,0.02386,0.0452
0.981125,0.054325,0.066
1.0006,0.0366667,0.0499667
1.04906,-0.04918,-0.00246
1.227775,-0.116425,0.017325
1.41655,-0.0656,0.07415
1.3476,0.0583,-0.004975
1.28135,0.0588,-0.1432
1.240675,0.012725,-0.219275
1.08095,0.0084,-0.381875
1.029475,-0.0388,-0.399575
0.99245,-0.004575,-0.375225
0.9899,0.0119,-0.3127667
0.997625,0.020725,-0.2523
1.03616,0.03254,-0.14456
1.076225,0.074725,-0.08725
1.0305667,0.0815,-0.0830667
0.9587,0.073675,-0.07435
0.88665,0.001525,-0.115025
0.819975,-0.05095,-0.13935
0.754,-0.105175,-0.119725
0.626275,-0.12295,-0.061
0.61045,-0.14595,-0.10895
0.58455,-0.108525,-0.13705
0.684475,-0.095225,0.037125
0.808925,-0.086275,0.096
0.899425,-0.052,0.090475
0.95865,0.004725,0.040975
1.04335,0.0636,0.0535
1.1352,0.073575,0.108275
1.180975,0.014,0.068075
1.187,-0.04865,-0.042375
1.2265,-0.099175,-0.1947
1.330875,-0.09435,-0.274225
1.432125,-0.03955,-0.101375
1.3621,0.008175,-0.020075
1.0943,-0.02555,-0.241175
0.9636,-0.0735,-0.2983
0.931825,-0.05935,-0.205175
0.9233,-0.051025,-0.137425
0.9836,-0.050575,-0.048875
1.08015,-0.06135,0.0317
1.162475,-0.0652,-0.03945
1.126775,-0.04615,-0.1031
1.042075,-0.03445,-0.047375
0.8783,0.0035,0.01735
0.6943,0.047275,-0.0175
0.6885333,-0.0447333,-0.1399667
0.60686,-0.0138,-0.22978
0.5101,0.059525,-0.033525
0.546575,0.135325,0.207125
0.73175,0.128025,0.160125
0.8836667,0.1174333,0.0011
0.9557,0.06955,0.014575
0.96368,0.04848,0.13884
0.930225,0.0616,0.1129
0.93165,0.03035,-0.026875
0.9592667,-0.0606,0.0081667
1.12474,0.01796,0.11984
1.308875,0.105225,0.16545
1.56455,0.110925,-0.0189
1.6047,0.0319667,-0.1927333
1.289725,-0.010925,-0.260375
1.08122,-0.10722,-0.22498
0.96195,-0.17685,-0.16955
1.0076,-0.14725,-0.0472
1.0681,-0.0873,0.028525
1.10085,-0.02055,0.06495
1.0542,0.03408,0.08666
0.9418,0.0448,-0.00634
0.9427333,0.0746,0.1022
0.9284,0.076925,0.1294
0.841125,0.01765,-0.00925
0.82775,-0.0322,-0.111575
0.835575,-0.088175,-0.0862
0.77062,-0.14062,-0.03232
0.8853333,-0.1805,0.0889
0.9947,-0.1923333,0.1699333
1.045,-0.16108,0.157
0.998475,-0.12015,0.114275
0.977625,-0.079175,0.142825
0.935875,-0.022425,0.1536
0.8901,0.0003667,0.0940667
0.89052,-0.02168,0.01866
0.9507,-0.0859,0.003525
1.019575,-0.120775,-0.075675
1.082075,-0.098125,-0.011525
1.0858333,-0.0361667,0.1737333
1.08168,0.00732,0.20854
1.128825,0.012225,0.1541
1.1238,-0.0426,0.0213667
