accx,accy,accz
0.9619333,0.0391333,0.0533333
0.982,0.038975,0.0587
0.97485,0.040525,0.0384
0.9674,0.039525,0.0039
0.96335,0.0535,0.0092
0.944975,0.069775,0.036
0.94045,0.07325,0.063275
0.946675,0.070225,0.08405
0.95755,0.082175,0.109225
0.963775,0.095275,0.11205
0.95475,0.119475,0.1321
0.9596,0.1071,0.1538667
0.9848,0.07232,0.2123
1.039925,0.0398,0.201125
1.067325,0.03005,0.138175
1.0477,0.0596,0.119475
1.0143,0.0831333,0.1331
0.99728,0.107,0.1199
0.9669,0.121875,0.112
0.9411,0.1236333,0.1282
0.90816,0.11488,0.1636
0.8760667,0.1249,0.1524667
0.91664,0.12916,0.17174
0.9645667,0.1291,0.1784667
0.95105,0.1375,0.1894
0.957775,0.11215,0.196275
0.977175,0.083975,0.232825
1.00878,0.06794,0.2765
1.0373333,0.0392667,0.2576667
1.05206,0.01412,0.3095
1.1075333,0.0148,0.2878333
1.1336,0.01865,0.2565
1.1333,0.027075,0.24845
1.10768,0.03812,0.33274
1.0543,0.06605,0.236875
0.9794,0.0687,0.2359
1.0077,0.0822333,0.2040667
1.07278,0.13212,0.07276
1.09345,0.27,-0.0355
0.977825,0.369775,-0.108725
0.930725,0.336175,-0.148475
0.809,0.141525,-0.116375
0.838275,-0.0088,-0.1439
0.915825,-0.0614,-0.191125
1.064925,-0.02955,-0.106625
1.10055,0.04725,-0.04465
1.0566,0.086325,0.064675
0.966625,0.07585,0.134525
0.90555,0.0225,0.05835
0.8481,0.01135,0.038175
0.75935,0.038525,0.0023
0.789425,0.027375,0.0784
0.86245,0.005975,0.1291
0.825925,0.01235,0.104575
0.8296,-0.020325,0.076975
0.840225,-0.03175,0.0887
0.906975,-0.0425,0.098725
0.965575,-0.03295,0.125425
0.963275,-0.0072,0.164725
0.95335,0.006725,0.20465
1.029425,0.017725,0.1889
1.0788,0.0299333,0.1548667
1.14734,0.06416,0.1981
1.1469,0.03715,0.25845
1.178575,0.001225,0.279875
1.29925,0.06085,0.290475
1.3137,0.161675,0.2754
1.213225,0.1997,0.118525
1.104975,0.15535,-0.144025
1.1256,0.130475,-0.260925
1.1177,0.148075,-0.237025
1.0425667,0.2027333,-0.2173333
0.9975667,0.2426667,-0.1718
0.9185833,0.2617,0.0371333
0.901775,0.16685,0.056075
0.8770667,0.1449667,-0.0659667
0.838,0.113675,-0.117
0.80858,0.08976,-0.03404
0.8075667,0.1137667,0.0499
0.77574,0.12538,0.10964
0.772075,0.1099,0.09795
0.8072333,0.0716667,0.0634667
0.7856,0.0726,0.08166
0.7861333,0.0840333,0.0750667
0.79276,0.10186,0.08364
0.8465,0.1010667,0.2220667
0.9504,0.081625,0.2479
1.04426,0.06606,0.18072
1.0324,0.054625,0.3276
1.0806667,0.0392667,0.3011
1.12035,0.01015,0.095975
1.0889,0.0003667,0.1794333
1.2609833,0.0440167,0.51595
1.1359333,0.0174667,0.4418667
1.07285,-0.038875,0.2373
0.979375,-0.0032,-0.147225
1.054175,0.225725,-0.13375
1.1958,0.33165,-0.052025
1.4183,0.29755,-0.120725
1.3564,0.223225,-0.271425
1.0747,0.06805,-0.36845
0.9045333,-0.0342667,-0.3203333
0.86836,-0.02358,-0.26942
0.9630333,0.0215333,-0.2105
0.92014,0.10386,-0.01668
0.811375,0.143725,0.242325
0.7315333,0.1473333,0.1127
0.64674,0.15804,-0.01476
0.632,0.13045,0.025925
0.687525,0.09,0.057075
0.751375,0.067,0.05105
0.7913333,0.0384667,0.0590333
0.82856,-0.0193,0.10072
0.90855,-0.109325,0.102225
0.966075,-0.1431,0.057725
0.98305,-0.0871,0.1654
1.02045,-0.021875,0.27155
1.105575,0.04845,0.2595
1.1963,0.1098,0.27415
1.20675,0.083175,0.35185
1.2615,0.0280333,0.2668667
1.29126,0.00246,0.23112
1.25015,0.109375,0.347975
1.174925,0.194925,0.123725
0.926825,0.284975,-0.184275
0.957325,0.17675,-0.189975
1.0439333,0.1747,-0.2119667
1.1544,0.2172,-0.24456
1.12585,0.284425,-0.32245
1.0118333,0.2941667,-0.2334333
0.903575,0.268875,-0.060725
0.83015,0.198525,0.051775
0.83666,0.15666,0.04116
0.8422667,0.0703333,0.0231667
0.8021,0.01285,0.081425
0.691925,-0.00115,0.1737
0.6647,0.017775,0.14015
0.66684,0.06242,0.10534
0.6928667,0.0841667,0.0958333
0.73615,0.091125,0.128475
0.80685,0.10815,0.19245
0.887,0.117275,0.218925
0.97054,0.10746,0.21138
1.033625,0.096575,0.24765
1.0867333,0.0855667,0.2440667
1.18325,0.077225,0.184875
1.3589,0.07095,0.1919
1.47275,0.06935,0.402175
1.2453,0.046775,0.35795
1.129075,-0.02735,0.25205
1.028125,-0.034575,-0.04135
1.0076,0.0570667,-0.2697667
1.15908,0.25782,-0.01282
1.296275,0.299975,-0.0711
1.224925,0.212375,-0.1747
1.020975,0.1029,-0.28345
0.96295,0.0061,-0.198875
1.017425,0.07235,-0.109225
1.089675,0.104,-0.130625
1.035275,0.126,-0.1001
0.831425,0.10965,0.055575
0.622175,0.09955,0.0554
0.476925,0.101125,-0.010475
0.427,0.105775,-0.0359
0.5149,0.075475,0.03535
0.63365,0.042825,0.150425
0.712025,0.017925,0.1663
0.834725,-0.03625,0.113325
1.022525,-0.07675,0.098725
1.095525,-0.043125,0.16825
1.0808,0.0195,0.23795
1.10465,0.083,0.2532
1.15705,0.081275,0.2669
1.225875,0.0443,0.278575
1.2367,0.00025,0.1883
1.285525,0.005125,0.208425
1.2354,0.1419,0.185975
1.035825,0.2759,-0.071
0.88255,0.200975,-0.268825
1.0084,0.1553,-0.3814333
1.17906,0.21656,-0.32042
1.2135667,0.2997,-0.3391667
1.25652,0.35926,-0.16508
1.312825,0.323575,0.120775
1.090975,0.1666,0.02355
0.824775,0.194875,-0.11715
0.8101,0.1018333,-0.1007667
0.84018,-0.02728,-0.04318
0.730875,-0.0599,0.099325
0.662925,-0.0031,0.140775
0.5905667,0.0705667,0.0745
0.60874,0.09008,-0.02514
0.700175,0.05995,0.01035
0.855,0.033675,0.050675
0.960725,0.070075,0.17785
0.9609,0.0956,0.2815333
0.9196667,0.1375667,0.2217333
0.9366,0.11664,0.25374
1.03656,0.01578,0.26496
1.244575,-0.0256,0.234225
1.3843667,-0.0326,0.3563333
1.26815,-0.019425,0.372725
1.08936,-0.04502,0.30172
1.03055,-0.02655,-0.040975
1.0982667,0.1212,-0.2368333
1.206125,0.2907,-0.08145
1.3090667,0.3095667,-0.1259667
1.35802,0.17636,-0.08264
1.08835,0.095975,-0.066325
0.731125,-0.03645,-0.119725
0.548775,-0.06205,-0.1511
0.67894,0.01264,-0.2015
0.9549,0.0523,-0.1500667
1.0203,0.069675,-0.00895
0.873875,0.079525,0.133975
0.7109,0.124625,0.2018
0.65745,0.13665,0.122
0.644675,0.117025,0.0372
0.6856,0.0628,0.083625
0.704025,0.016675,0.10785
0.7433,-0.025775,0.120925
0.830925,-0.077425,0.1228
0.9311,-0.113225,0.1154
1.030875,-0.11,0.121025
1.153775,-0.0732,0.165275
1.225025,-0.05755,0.405375
1.2212667,-0.0086,0.5144
1.17182,0.0253,0.37008
1.215675,-0.000425,0.167375
1.2758,0.081,0.20255
1.288625,0.18675,-0.240175
1.1859,0.2122,-0.3254
1.22164,0.28516,-0.20962
1.425175,0.275475,-0.287975
1.44165,0.271975,-0.48725
1.20455,0.350325,-0.246775
0.9746,0.256575,0.035175
0.826625,0.244275,0.08025
0.711575,0.296825,-0.0334
0.720525,0.15565,-0.03915
0.736275,0.050175,0.01115
0.6808,0.0215667,0.0359667
0.6089,0.01962,0.05454
0.59395,0.026025,-0.000575
0.61815,0.017475,-0.003225
0.685275,0.02295,0.123525
0.8066,0.07205,0.2529
0.92135,0.092825,0.2798
0.9947,0.076375,0.24605
1.134875,0.03415,0.40005
1.27685,0.045575,0.412475
1.2955333,0.0625333,0.3174667
1.26998,0.08016,0.30654
1.217,0.052875,0.3311
1.1574,0.005925,0.319325
1.0324333,-0.0490333,0.3785667
1.0015,-0.101625,-0.0395
1.00612,0.10014,-0.60006
1.1408,0.354875,-0.28315
1.496,0.447375,-0.1868
1.5305333,0.4987667,-0.0849667
1.14795,0.22525,0.010675
0.75185,-0.093025,0.062
0.61405,-0.154925,-0.15905
0.7596,-0.00562,-0.21806
0.940875,0.061475,0.1106
0.8467,0.0921,0.103725
0.67455,0.104075,-0.012075
0.6360333,0.1201333,0.0186
0.655125,0.12135,0.040475
0.683275,0.125075,-0.000375
0.734525,0.119975,0.0006
0.8190667,0.0599333,0.0702667
0.9045167,-0.0050833,0.1645
0.9274,-0.0365667,0.2045333
0.977725,-0.0336,0.18555
1.0547,-0.0167,0.2657667
1.10364,-0.00826,0.3418
1.0967,-0.031625,0.3368
1.1278,-0.01875,0.246075
1.196,-0.05645,0.245625
1.25705,0.061075,0.37695
1.257475,0.2984,0.036875
1.04395,0.28875,-0.194
1.11835,0.162225,-0.260975
1.420625,0.1391,-0.305575
1.4826333,0.2224,-0.3228667
1.30414,0.32802,-0.15304
1.0791,0.3996,0.174475
0.9092,0.289975,0.075025
0.770675,0.30065,-0.118475
0.8065,0.124825,-0.102125
0.7799,-0.027375,-0.04385
0.70995,-0.065575,0.0153
0.643425,-0.053825,0.0689
0.6222,-0.02085,0.06475
0.64765,0.01595,0.047625
0.6899,0.0073667,0.1247333
0.71696,0.04828,0.19974
0.772775,0.099625,0.207975
0.813275,0.11945,0.158475
0.8744667,0.1162,0.2039333
1.00472,0.07072,0.34058
1.126125,0.030925,0.34285
1.2536,0.036325,0.195525
1.41465,0.054825,0.3349
1.366375,0.043675,0.418975
1.168675,0.0189,0.333275
1.09505,-0.025725,0.31725
1.02305,-0.077775,-0.12035
0.9903,0.145125,-0.306475
1.1707,0.360775,-0.055825
1.424125,0.4208,-0.18905
1.4423,0.274,-0.244825
1.064,0.110525,-0.2559
0.843025,-0.03715,-0.2539
0.8576,-0.060225,-0.278925
0.8899,0.052125,-0.15085
0.866725,0.106225,0.057125
0.77845,0.128825,0.038525
0.6372,0.1365667,0.0345
0.5735667,0.1270667,0.0622
0.5716667,0.1099833,0.0307167
0.650725,0.063375,0.024
0.7757,0.0221,0.0657
0.85414,-0.0124,0.09466
0.9001,-0.0414333,0.1135333
0.9487,-0.0813,0.15998
0.9980333,-0.0827,0.1959667
1.041325,-0.056825,0.2333
1.1026,-0.01872,0.32566
1.1788667,0.0013,0.3128333
1.230825,-0.00675,0.283075
1.228175,0.024875,0.16205
1.20335,0.03985,0.1893
1.163975,0.083775,0.28555
1.106775,0.30475,-0.065225
0.88715,0.3243,-0.272625
0.937,0.141175,-0.403975
1.27155,0.11935,-0.342925
1.4114,0.231975,-0.260675
1.30295,0.31575,-0.037975
1.172525,0.318475,0.24445
0.950675,0.242375,0.105825
0.8336,0.238575,-0.111125
0.81075,0.09815,-0.087225
0.79775,-0.016725,0.048925
0.71955,-0.045375,0.136925
0.618575,-0.03655,0.136125
0.595275,-0.0256,0.075675
0.615875,-0.0053,0.054
0.688475,0.01705,0.137925
0.73095,0.055425,0.263475
0.74965,0.100875,0.2155
0.79,0.10395,0.13465
0.9078,0.1037,0.231275
1.067975,0.083725,0.32005
1.195425,0.05245,0.2522
1.392725,0.07995,0.27565
1.52715,0.08605,0.413825
1.34315,0.049525,0.32055
1.2078,5e-05,0.31025
1.14105,-0.0709667,0.0586667
1.055275,0.05175,-0.427075
1.22245,0.242,0.07515
1.3768667,0.3595667,-0.0272333
1.39986,0.23098,-0.30688
1.029475,0.1216,-0.145625
0.743775,-0.0097,-0.1723
0.738375,-0.055975,-0.2566
0.805175,0.02745,-0.1739
0.821575,0.099925,0.035275
0.763975,0.13715,0.056325
0.6509,0.1554,0.02525
0.5896,0.1308,0.0511333
0.574375,0.100425,0.041175
0.60785,0.05945,0.05155
0.72415,0.028125,0.09615
0.85922,0.0056,0.03628
0.9853667,-0.0209667,0.0324667
1.064025,-0.049325,0.168875
1.113375,-0.0649,0.191525
1.17596,-0.05002,0.07694
1.1998,-0.0329,0.1546667
1.1578,-0.00616,0.24232
1.1615,-0.0036333,0.2003
1.14055,-0.01515,0.197975
1.1561,-0.02205,0.25865
1.1828833,0.1427333,0.1041667
1.031875,0.353575,-0.27135
1.045075,0.225675,-0.360025
1.144375,0.15135,-0.295575
1.225125,0.1944,-0.122325
1.1758,0.2867,-0.021675
1.105125,0.379475,0.11925
1.08625,0.3628,0.19155
0.956775,0.28795,0.0292
0.8615,0.160575,-0.00705
0.78745,-0.003,0.000325
0.7117,-0.054075,0.037775
0.586375,-0.08225,0.076675
0.50245,-0.051625,0.120575
0.564,0.01705,0.13435
0.6163,0.074025,0.097925
0.655175,0.113425,0.1127
0.7299,0.1435,0.1437667
0.85844,0.19058,0.11662
0.94495,0.208225,0.13335
1.017675,0.1785,0.17345
1.135675,0.10805,0.242775
1.269925,0.063475,0.225875
1.442625,0.07015,0.248825
1.49635,0.075525,0.387525
1.3655,0.0632,0.4535
1.2354857,-0.0237714,0.3263857
1.156675,0.006975,-0.280025
1.0854,0.1845667,-0.3484333
1.2528,0.31744,-0.13972
1.4418,0.272825,-0.110325
1.182925,0.127175,-0.119225
0.8317,0.002975,-0.1308
0.85835,-0.031325,-0.2093
1.0386,0.097725,-0.168375
1.1052,0.13995,-0.0048
1.0455,0.15635,0.119175
0.922175,0.0932,0.0918
0.714225,0.08255,0.06515
0.56215,0.07045,0.050075
0.43935,0.0659,-0.01165
0.4372,0.066775,0.00835
0.487425,0.036575,0.05735
0.562,-0.003425,0.0953
0.649125,-0.07245,0.109775
0.735475,-0.09235,0.015125
0.9148667,-0.0933667,0.0488333
1.10776,-0.03528,0.23792
1.2874,0.009775,0.381825
1.38325,0.02565,0.450525
1.35615,0.0124,0.391375
1.3325333,-0.0228,0.2662
1.37004,-0.02742,0.1478
1.310775,-0.01315,0.252175
1.0723,0.0878667,0.2651667
0.92582,0.29702,-0.16314
0.8061,0.271125,-0.382925
0.9306667,0.1787,-0.3539333
1.2504,0.1628,-0.3033
1.413475,0.17825,-0.1718
1.22906,0.29482,-0.03536
1.0807,0.3442667,-0.0043667
0.998125,0.3126,-0.05625
0.975325,0.25825,-0.003875
0.883125,0.111225,0.051575
0.765175,0.0214,0.077925
0.6787,-0.0339,0.113625
0.6058,-0.055275,0.108925
0.508125,-0.016575,0.03125
0.5593,0.0089,-0.0150333
0.63456,0.03924,0.09974
0.7102,0.07735,0.14345
0.7727,0.111725,0.111175
0.8119667,0.1449333,0.1075
0.8872,0.1486,0.09845
1.08964,0.11624,0.23458
1.305575,0.07655,0.3923
1.442325,0.00635,0.33785
1.49905,-0.032325,0.329225
1.4191,-0.03715,0.461525
1.2686,-0.074625,0.45745
1.143275,-0.108425,0.27165
1.038475,-0.0558,-0.295475
0.963575,0.14195,-0.306175
1.0181,0.2786,-0.0814
1.3186143,0.3499857,-0.0047857
1.34285,0.2113,-0.19185
0.943075,0.083275,-0.28135
0.60465,-0.02995,-0.195775
0.557225,0.00815,-0.187025
0.74385,0.0426,-0.115325
0.901375,0.068175,0.05385
0.822875,0.05695,0.1528
0.7049,0.062625,0.048625
0.6601,0.0874333,0.0245667
0.71576,0.08778,0.02008
0.770625,0.0705,0.04525
0.8222,0.0486,0.0692333
0.86246,0.03452,0.04648
0.864,0.01245,0.0475
0.8355,-0.0484,0.15615
0.859175,-0.0904,0.211175
0.977575,-0.049575,0.215475
1.03875,0.011125,0.23435
1.052875,0.02005,0.28255
1.0740667,0.0594,0.2266333
1.06636,0.07706,0.13664
1.077275,0.0588,0.11845
1.03015,0.119325,0.03365
0.9383333,0.2689,-0.2893667
0.90855,0.2729,-0.26665
1.290225,0.1301,-0.182325
1.87805,-0.027925,-0.1724
1.854025,0.220625,-0.460975
1.403875,0.311725,-0.295575
1.095825,0.35975,-0.162225
0.942,0.40848,-0.09322
0.727525,0.426425,0.120625
0.6202333,0.2712667,0.0553
0.5243,0.23725,-0.0367
0.504,0.144225,-0.1127
0.6019,0.019925,-0.096075
0.754175,-0.125425,-0.0422
0.86265,-0.20495,0.05245
0.956575,-0.195975,0.136375
0.9263,-0.13535,0.197575
0.90505,-0.049775,0.31725
0.900725,0.0476,0.3651
0.878325,0.094825,0.3914
0.8456,0.0841,0.32025
0.892675,0.058325,0.300025
0.98695,0.014225,0.315175
1.0741,-0.012075,0.258575
1.316925,0.01925,0.34865
1.4733,0.1026,0.456775
1.278475,0.07925,0.321425
1.1432,-0.0316,0.01175
1.059675,0.085525,-0.379575
1.111475,0.225075,-0.2883
1.3147,0.3001333,-0.1219333
1.39888,0.226,-0.10778
1.10995,0.051525,-0.0637
0.8497,-0.0883,-0.069225
0.716925,-0.167425,-0.11305
0.7687,-0.119775,-0.22655
0.9201,-0.05805,-0.11875
0.856225,0.0014,0.033225
0.708525,0.068675,0.1347
0.5719,0.119625,0.210375
0.5962,0.16345,0.207425
0.675825,0.1592,0.100875
0.73305,0.096075,0.07585
0.74705,0.040325,0.085525
0.79445,0.00385,0.1423
0.9051333,-0.0254667,0.1877
0.9961,-0.0333667,0.122
1.04475,-0.0299,0.0603
1.1606143,-0.0237286,0.1099286
1.269,-0.00495,0.2452
1.3014333,-0.04935,0.2995
1.197625,-0.03695,0.3406
1.150675,-0.00305,0.464
1.13725,0.16145,0.171125
0.96655,0.3421,-0.2114
1.084675,0.14985,-0.207125
1.238375,0.03735,-0.20635
1.4152,0.086225,-0.1404
1.3755667,0.1982667,-0.131
1.16848,0.30256,-0.06668
0.9409333,0.3739,0.0429667
0.85025,0.34865,0.060325
0.79606,0.3074,-0.06226
0.797575,0.1425,-0.09125
0.766775,0.010925,-0.01365
0.721075,-0.050575,0.0742
0.6597,-0.0488,0.113425
0.6232667,-0.0476333,0.1023
0.6052,-0.0229,0.084975
0.63895,-0.007325,0.102
0.688375,0.012775,0.21555
0.730525,0.0392,0.32025
0.7814,0.06818,0.26006
0.891975,0.1163,0.130275
0.9918,0.1174333,0.3422333
1.194725,0.09795,0.412025
1.34565,0.106575,0.317025
1.48755,0.114825,0.3464
1.487525,0.0547,0.390275
1.313075,-0.024325,0.364575
1.211325,-0.086325,0.1768
1.043,0.0204,-0.30515
0.9577,0.1896,-0.302325
1.276325,0.31325,-0.140625
1.46435,0.2667,-0.07355
1.193375,0.214625,-0.094075
0.8372,0.110425,-0.176625
0.7059,-0.016,-0.187775
0.793225,0.002925,-0.267275
1.017675,0.0509,-0.2573
1.03955,0.073825,-0.083475
0.851275,0.109375,0.08825
0.6847,0.148075,0.159275
0.607275,0.169575,0.094125
0.586125,0.15925,0.046
0.65695,0.088875,0.110475
0.73805,0.019675,0.146775
0.813425,-0.04025,0.116625
0.805125,-0.08085,0.0965
0.8126,-0.0834,0.09995
0.916475,-0.05,0.203725
1.0387,-0.0079,0.258975
1.1459333,0.0031667,0.2095
1.24108,-0.0096,0.236
1.282225,-0.05425,0.3192
1.259425,-0.036725,0.311775
1.210875,0.0202,0.366175
1.1495,0.20675,0.033275
1.02665,0.321575,-0.1868
1.0904667,0.2151333,-0.0989333
1.1991,0.12376,-0.02514
1.2354,0.1133333,-0.1653
1.14484,0.19492,-0.38974
0.94465,0.3102,-0.177175
0.8666333,0.352,0.0538333
0.9938,0.3209,0.14414
1.1426667,0.2227333,0.1341667
1.13958,0.074,0.02402
0.9318,-0.021325,0.0949
0.722125,-0.030525,0.1609
0.585875,-0.04345,0.1648
0.5034,-0.0287333,0.1578333
0.508175,-0.022725,0.1342
0.566275,0.009225,0.14645
0.6721,0.0489,0.1839
0.84142,0.0948,0.24294
0.8968667,0.1408333,0.2897
0.866,0.131625,0.263575
0.89815,0.0814,0.2496
1.0038,0.04645,0.2111
1.1787,0.073825,0.320075
1.389825,0.073625,0.369925
1.425025,0.0385,0.320325
1.31055,-0.015275,0.357025
1.185075,-0.1022,0.1946
1.092775,0.0869,-0.21555
1.1177,0.271475,-0.26855
1.2244,0.378275,-0.11255
1.327,0.192975,-0.045625
1.0123,0.01345,-0.170575
0.89035,-0.0861,-0.25075
0.98365,-0.085425,-0.1633
1.165625,0.01315,-0.068475
1.2177,0.066975,-0.04225
1.0061,0.162375,0.07595
0.769375,0.176625,0.127925
0.5808,0.126375,0.0782
0.485175,0.085775,0.00885
0.509375,0.06795,0.0249
0.66815,0.03915,0.11975
0.774725,0.0086,0.1914
0.7941,-0.028475,0.19765
0.8392333,-0.0765667,0.1444667
0.92726,-0.09774,0.11204
0.989,-0.081325,0.194325
1.02305,-0.031475,0.229975
1.10275,0.025175,0.276925
1.1705333,0.0301667,0.2995333
1.1735,-0.01002,0.21746
1.172725,-0.025375,0.2448
1.146375,0.03145,0.3707
1.16575,0.159,0.22285
0.940675,0.33175,-0.102575
0.983925,0.203925,-0.19975
1.25605,0.16535,-0.096075
1.415675,0.1215,-0.133
1.36765,0.142025,-0.28065
1.17595,0.2792,-0.1497
1.05405,0.310575,0.157575
0.97455,0.285275,0.1924
0.89265,0.1857,0.014275
0.840225,0.0167,0.001275
0.733325,-0.059,0.0494
0.64185,-0.062075,0.1049
0.571575,0.02585,0.10105
0.648,0.046025,0.080775
0.7045,0.0499667,0.1405
0.75156,0.06158,0.16364
0.75215,0.07985,0.262025
0.8064,0.101025,0.3579
0.8097333,0.0956,0.2744667
0.807825,0.067025,0.159775
0.8634,0.0481,0.201025
1.03098,0.0739,0.24544
1.294525,0.106825,0.2868
1.5335667,0.0606333,0.3977333
1.515325,-0.00745,0.3788
1.247975,-0.0452,0.258125
1.039825,-0.0827,0.11445
0.98438,0.04886,-0.13182
1.1920333,0.2135,-0.2027667
1.3707,0.296025,-0.17125
1.3855,0.20655,-0.0791
1.074875,0.048675,-0.170875
0.915625,-0.047375,-0.25465
0.9278,-0.0741,-0.06975
1.055625,0.01855,0.00395
1.0904667,0.0626667,0.0175667
0.9804,0.12202,0.0949
0.789275,0.1463,0.161825
0.644025,0.109525,0.086675
0.534725,0.082,0.025125
0.5268,0.052,0.0155333
0.7198,0.01728,0.0613
0.8557,0.01005,0.155775
0.9048,-0.0018,0.1927
0.937075,-0.05135,0.165125
0.945775,-0.104125,0.17315
0.95475,-0.112125,0.187875
0.96035,-0.05475,0.20615
0.985625,0.017575,0.231075
1.000825,0.048625,0.2227
1.050075,0.01565,0.215875
1.124125,-0.012825,0.23
1.118825,-0.0062,0.278875
1.160925,0.069125,0.31755
1.1479,0.257875,0.159275
1.02555,0.28075,-0.147425
1.13195,0.2426,-0.227925
1.30575,0.15385,-0.17315
1.306475,0.077225,-0.211725
1.1356,0.174175,-0.208
1.034625,0.26505,0.0282
1.018225,0.284475,0.17215
1.002725,0.234075,0.077375
0.98885,0.088,0.051
0.9094667,-0.0079,0.0824
0.809975,-0.02085,0.07665
0.70648,-0.0023,0.13408
0.665625,0.02335,0.1213
0.6976,0.04405,0.0473
0.7309333,0.0785667,0.0624
0.76288,0.10818,0.11524
0.790675,0.122,0.158375
0.84285,0.130825,0.24185
0.868825,0.123925,0.28445
0.8620667,0.1025333,0.1934667
0.91002,0.07068,0.16364
0.9838,0.0546333,0.1941
1.1597,0.076775,0.249175
1.36418,0.0758,0.33672
1.3786333,0.0436667,0.299
1.22895,0.00855,0.22295
1.07705,-0.0479,0.190375
1.066775,-0.001375,-0.022875
1.23098,0.16152,-0.14098
1.3861333,0.1737333,-0.1803667
1.2292,0.07805,-0.155675
0.821075,-0.02625,-0.132025
0.708225,-0.03635,-0.065975
0.8140667,0.0125667,-0.0378333
1.01302,0.08662,-0.0124
1.134975,0.157475,0.028575
1.075925,0.17385,0.0548
0.9245,0.162025,0.0535
0.79465,0.116775,0.038275
0.674175,0.084325,0.024775
0.6797,0.049425,0.022225
0.810525,-0.01785,0.13785
0.905125,-0.04895,0.201925
0.91215,-0.058,0.2125
0.928525,-0.06305,0.1691
0.94235,-0.058275,0.19155
0.9477,-0.05375,0.223875
0.933175,-0.04295,0.2183
0.934825,-0.01105,0.199725
0.9426,0.049375,0.188975
0.955525,0.0467,0.1541
0.9936,0.03445,0.13565
1.0582,0.07105,0.0493
1.0873,0.151125,-0.09935
1.054225,0.23275,-0.086075
1.1281,0.2612,-0.1208
1.24875,0.257675,-0.141175
1.33085,0.258075,-0.111625
1.26005,0.280075,-0.149975
1.05045,0.278025,-0.1171
0.90585,0.2514,-0.049175
0.8734,0.168125,-0.00775
0.952775,0.08445,0.011025
1.083375,0.00705,0.086075
1.12105,-0.024375,0.161125
1.002,-0.01545,0.1374
0.87065,0.01455,0.0895
0.824275,0.0523,0.083575
0.854625,0.081775,0.105
0.904575,0.115175,0.094575
0.934575,0.15755,0.0891
0.94715,0.20025,0.0906
0.92765,0.2204,0.102825
0.9185,0.193775,0.09015
0.9246,0.1483,0.0794667
0.9538,0.109425,0.0684
0.96006,0.08524,0.12826
0.949675,0.0803,0.14405
0.9135,0.079675,0.127725
0.9511333,0.0765333,0.1427667
1.04508,0.08614,0.13364
1.1089,0.106375,0.090475
1.115475,0.110475,0.055675
1.0449333,0.1064,0.0376333
0.923,0.09405,0.0669
0.84695,0.0754,0.113475
0.839725,0.0606,0.15505
0.95818,0.05654,0.16816
1.0319,0.0679,0.168425
1.0404333,0.0802667,0.1521333
1.0084,0.094375,0.11905
0.95636,0.08458,0.10022
0.9369667,0.056,0.1115333
0.92865,0.0388,0.113
0.96445,0.0396,0.15825
0.981375,0.067775,0.189025
0.99084,0.09262,0.17554
1.0008333,0.0794667,0.1385333
1.018175,0.066075,0.185125
0.98585,0.066975,0.129875
0.958875,0.071175,0.11025
