accx,accy,accz
0.98475,0.022875,0.06805
0.9891667,0.0192333,0.0607333
0.99205,0.0177,0.058875
0.9843,0.0227333,0.0678
0.97605,0.02775,0.0672167
0.9775333,0.0284667,0.0733
0.98755,0.0221,0.0606
0.989275,0.0188,0.067825
0.9834333,0.0227667,0.0743667
0.98378,0.02254,0.05426
0.984275,0.025225,0.06175
0.9834,0.024325,0.0697
0.9792333,0.0232667,0.0553667
0.983,0.0188,0.05432
0.98625,0.0196,0.06915
0.991275,0.017425,0.0581
0.981825,0.023375,0.069275
0.9748333,0.0249333,0.0613
0.97904,0.02594,0.05746
0.985,0.0253,0.068775
0.9865,0.01985,0.054925
0.9829,0.019675,0.05065
0.9811333,0.0239333,0.0599333
0.98594,0.0222,0.05602
0.98405,0.022225,0.059125
0.981225,0.02065,0.059675
0.981125,0.019425,0.059625
0.9787,0.021525,0.063325
0.98395,0.022675,0.061575
0.9859,0.019625,0.05945
0.985,0.0186,0.06265
0.981925,0.0192,0.064
0.9812,0.0217667,0.0621
0.98498,0.02174,0.0595
0.989625,0.0184,0.0562
0.98165,0.01795,0.05535
0.978525,0.022725,0.061625
0.98415,0.023675,0.06615
0.989325,0.02425,0.066375
0.989525,0.01905,0.05405
0.983025,0.0182,0.05715
0.9785,0.0217,0.06295
0.9792333,0.0246333,0.0624667
0.98824,0.02376,0.06208
0.99115,0.02285,0.05125
0.98865,0.0225,0.0567
0.982575,0.0242,0.068475
0.9831667,0.0223333,0.0626667
0.9828333,0.0191667,0.0511333
0.9819667,0.01785,0.0598333
0.978575,0.02385,0.07525
0.9798,0.0249333,0.0669333
0.9851,0.0242,0.05845
0.98768,0.0234,0.047
0.987875,0.018325,0.060225
0.981,0.017775,0.062075
0.9751667,0.0203333,0.0501667
0.97806,0.0232,0.05502
0.9852667,0.0224333,0.0631667
0.99,0.01906,0.06066
0.987,0.018075,0.063575
0.9847667,0.0168,0.0627667
0.980175,0.014775,0.07175
0.9789667,0.0156,0.0746
0.9829,0.0137333,0.0610667
0.9843571,0.0170714,0.0636571
0.98155,0.0204,0.072225
0.9858,0.0188,0.063575
0.991,0.01555,0.0566
0.9939333,0.016,0.0583667
0.98715,0.0165333,0.0571667
0.97604,0.01944,0.06626
0.9738667,0.0204,0.0639
0.9796,0.0198333,0.0512667
0.9866667,0.0192333,0.0539667
0.9882429,0.0173857,0.0595714
0.9785667,0.0184333,0.0625333
0.980625,0.01845,0.064625
0.9872,0.017925,0.06015
0.982,0.0223,0.06315
0.976475,0.023825,0.06165
0.9798,0.02425,0.06365
0.988525,0.02015,0.0526
0.989325,0.0171,0.04845
0.9863,0.01675,0.0569
0.984025,0.0179,0.0605
0.9863,0.01785,0.061925
0.9864,0.017425,0.052475
0.98325,0.019575,0.05955
0.9813,0.020225,0.0678
0.983,0.01545,0.057575
0.985775,0.01325,0.06165
0.98735,0.018375,0.06825
0.979725,0.023575,0.06165
0.976875,0.024775,0.0571
0.98005,0.0251,0.0582
0.9862,0.020175,0.06695
0.986575,0.01905,0.06115
0.985675,0.0183,0.051775
0.987175,0.021875,0.05315
0.9862,0.02025,0.0543
0.980975,0.01955,0.066025
0.97915,0.01965,0.070075
0.980925,0.019425,0.06525
0.988225,0.0185,0.064125
0.988475,0.017075,0.06705
0.9833,0.0171,0.067
0.977175,0.01945,0.06175
0.98365,0.0179,0.0586
0.99065,0.01825,0.054225
0.985675,0.0189,0.05785
0.978525,0.022225,0.063175
0.981325,0.0226,0.060925
0.98915,0.01925,0.06395
0.9935333,0.0167,0.0668667
0.9855,0.0172,0.0602714
0.9744,0.022375,0.066725
0.97885,0.023375,0.065125
0.9824,0.0241,0.0676
0.98525,0.021,0.062275
0.9872333,0.0165,0.0646667
0.9851667,0.0164,0.0574667
0.985775,0.017975,0.0513
0.9822667,0.0211,0.0568333
0.9776667,0.02475,0.0651
0.984425,0.01705,0.056425
0.9915667,0.0116667,0.0623
0.988775,0.0135,0.0731
0.980875,0.016625,0.073
0.9748667,0.0208,0.0710667
0.9778,0.0222667,0.0672333
0.9834,0.0228667,0.0605167
0.987775,0.0204,0.0629
0.9868,0.018775,0.0684
0.982425,0.0188,0.060625
0.984,0.017525,0.05205
0.9878,0.0198,0.06505
0.98285,0.021875,0.069975
0.980825,0.020775,0.061075
0.982875,0.020275,0.0598
0.98535,0.018975,0.070875
0.984475,0.018475,0.072325
0.9798,0.0177,0.0669
0.979175,0.021525,0.055275
0.98455,0.026325,0.062125
0.989525,0.022475,0.068975
0.989975,0.015075,0.059125
0.98615,0.00985,0.05295
0.97505,0.018275,0.073125
0.96945,0.02515,0.0801
0.9845333,0.0235333,0.0713167
0.9906,0.0189,0.0634
0.983675,0.02095,0.06005
0.978025,0.0258,0.0637
0.980225,0.02505,0.0668
0.985975,0.020275,0.060675
0.986325,0.01845,0.057725
0.985925,0.022475,0.059925
0.984475,0.026875,0.05465
0.9805,0.024,0.061575
0.9768,0.022925,0.073375
0.9834,0.014625,0.06155
0.986075,0.013625,0.05485
0.9889,0.017225,0.0717
0.9857,0.0182,0.073475
0.9843,0.0201,0.06495
0.981375,0.02335,0.05975
0.981975,0.026575,0.0655
0.983525,0.026325,0.067325
0.984075,0.023825,0.06015
0.985675,0.021975,0.0556
0.9864,0.0216,0.059875
0.983425,0.02455,0.065275
0.98345,0.023225,0.064775
0.9804,0.02125,0.062925
0.98165,0.01895,0.065125
0.9804,0.017,0.075075
0.982225,0.0201,0.0779
0.9819,0.02155,0.0714
0.98546,0.01996,0.06638
0.9863,0.01834,0.06114
0.98315,0.02045,0.065
0.9832667,0.0208667,0.0665333
0.98525,0.018675,0.06425
0.9836,0.02064,0.06506
0.981675,0.022825,0.06745
0.98255,0.02315,0.068975
0.9882,0.0186,0.0629
0.9856,0.01676,0.06902
0.97705,0.023,0.0713
0.97504,0.0254,0.06442
0.98275,0.022475,0.059975
0.9913,0.017475,0.0692
0.9858,0.0172,0.06842
0.9808,0.0197667,0.0732333
0.9798,0.021175,0.069175
0.981175,0.0218,0.0642
0.9867,0.02275,0.0603
0.9839,0.021425,0.0716
0.9821,0.02045,0.07375
0.986325,0.0171,0.06335
0.98945,0.0165,0.063875
0.983525,0.021975,0.070125
0.979675,0.026025,0.0681
0.9813,0.0273,0.059675
0.984075,0.023475,0.0609
0.984075,0.0199,0.064625
0.98315,0.0174,0.067425
0.9825,0.0201,0.06725
0.98395,0.021925,0.068475
0.9861,0.020075,0.0639
0.986325,0.019425,0.0605
0.9821,0.020225,0.069925
0.978275,0.021875,0.0705
0.982175,0.019,0.0647
0.9859,0.017425,0.063225
0.9845,0.019625,0.060175
0.980775,0.024825,0.068125
0.9826,0.023825,0.065475
0.987125,0.0225,0.06055
0.988175,0.01905,0.054225
0.9848,0.0209,0.0628
0.98115,0.022375,0.0634
0.98205,0.021575,0.063775
0.983825,0.020575,0.067575
0.9851,0.020225,0.057375
0.984325,0.019325,0.06305
0.9873,0.016575,0.07335
0.986875,0.01615,0.063525
0.98345,0.0201,0.05935
0.9775,0.025175,0.066875
0.981825,0.02225,0.0677
0.983875,0.02035,0.06935
0.9831667,0.0192333,0.0639
0.98182,0.0194,0.07082
0.98375,0.01905,0.07325
0.984025,0.020175,0.0625
0.9794333,0.0250333,0.0619667
0.98258,0.02366,0.06202
0.9897,0.018825,0.0643
0.98915,0.016925,0.065125
0.982875,0.02175,0.06425
0.9808,0.0244,0.0606
0.9805667,0.0261667,0.0606
0.981,0.0239167,0.0664667
0.98145,0.02235,0.074225
0.9834667,0.0210667,0.0636
0.984875,0.021075,0.063925
0.9875,0.0188,0.0673
0.9857,0.0197333,0.0683333
0.9804667,0.02145,0.0628667
0.9787333,0.0245333,0.0621333
0.983025,0.025,0.059425
0.986675,0.022625,0.05985
0.9862,0.0236,0.0736
0.9858333,0.0240167,0.0592667
0.98455,0.024575,0.059075
0.984825,0.025425,0.06915
0.98025,0.02465,0.0709
0.9787,0.02415,0.0665
0.9821,0.027625,0.063275
0.9795,0.0292,0.07105
0.97625,0.031275,0.0673
0.993075,0.01755,0.048
0.98965,0.0234,0.060525
0.9793,0.027425,0.064375
0.97865,0.02665,0.05575
0.98115,0.024475,0.066625
0.9915667,0.0192333,0.0681333
0.98878,0.01954,0.06216
0.9855,0.020325,0.063625
0.97955,0.02115,0.071525
0.97845,0.022325,0.0725
0.980225,0.016875,0.0623
0.9808,0.017775,0.0678
0.989075,0.0168,0.07525
0.99025,0.0193,0.06715
0.980775,0.02145,0.05285
0.975325,0.022875,0.06635
0.982725,0.0197,0.072875
0.98745,0.017125,0.062075
0.9834,0.019075,0.054275
0.97935,0.019675,0.06775
0.978775,0.021275,0.070425
0.987375,0.01985,0.052525
0.985175,0.02045,0.0577
0.9859,0.020525,0.070625
0.9839,0.022225,0.0537
0.99215,0.01865,0.03695
0.989025,0.0187,0.050875
0.9813,0.02005,0.0525
0.978575,0.021575,0.0617
0.98195,0.020575,0.062175
0.984925,0.020425,0.052575
0.987075,0.0204,0.05215
0.9886,0.01815,0.057525
0.9848667,0.0208667,0.0618
0.982725,0.0202,0.0516
0.979825,0.02315,0.048175
0.98032,0.02316,0.0559
0.9823,0.022625,0.052375
0.98755,0.02275,0.054925
0.9864,0.0221667,0.0497333
0.98458,0.0215,0.05126
0.9794,0.0235667,0.0581
0.97958,0.02434,0.05698
0.98515,0.022175,0.0436
0.9796,0.0259333,0.0443667
0.984275,0.023825,0.05285
0.9876,0.0223,0.051425
0.98355,0.02315,0.0477
0.98685,0.02205,0.048975
0.9872,0.02095,0.051525
0.98285,0.02505,0.0508
0.9806333,0.0273333,0.05
0.9818,0.02745,0.05065
0.9824143,0.0257,0.0526
0.986525,0.02025,0.04965
0.988425,0.020025,0.05135
0.98445,0.024625,0.0539
0.984675,0.023825,0.047825
0.97955,0.0251,0.05375
0.978325,0.0246,0.058625
0.981825,0.02455,0.053825
0.987075,0.024875,0.04625
0.9884667,0.0283,0.0430667
0.98752,0.0265,0.04742
0.9867,0.02895,0.0441
0.98425,0.0298,0.040975
0.9822,0.0307,0.0411
0.9824,0.02736,0.0499
0.98322,0.0256,0.0451
0.9821,0.0287,0.05165
0.98565,0.0286,0.0542
0.98695,0.024625,0.048375
0.9842,0.025025,0.04875
0.9826,0.026625,0.049
0.984025,0.02645,0.045625
0.984375,0.0251,0.048175
0.98515,0.0235,0.04545
0.9851,0.02525,0.04275
0.9816,0.02715,0.048925
0.979025,0.026925,0.05155
0.983275,0.022375,0.043175
0.98665,0.023325,0.043425
0.987125,0.02115,0.04085
0.98365,0.02425,0.047825
0.982275,0.026525,0.0479
0.98035,0.026275,0.04395
0.980025,0.02695,0.0472
0.983225,0.02435,0.046325
0.98265,0.024825,0.051375
0.982725,0.02435,0.05155
0.9840333,0.0242,0.0416667
0.984625,0.0238,0.0437
0.98866,0.0222,0.04424
0.990075,0.0236,0.036025
0.9817667,0.0292667,0.0385667
0.97765,0.030725,0.048025
0.977675,0.029625,0.053225
0.98645,0.023875,0.0477
0.98996,0.02042,0.04246
0.9880333,0.0218667,0.0469
0.986075,0.024575,0.048725
0.984325,0.024675,0.045625
0.98075,0.025225,0.043925
0.982775,0.025175,0.051075
0.985825,0.02345,0.04545
0.98695,0.023325,0.044525
0.9893,0.022175,0.043525
0.984275,0.021325,0.045575
0.980325,0.025475,0.0535
0.980175,0.0274,0.045925
0.984,0.024025,0.0389
0.986725,0.019725,0.0431
0.9837,0.01995,0.048975
0.98055,0.0214,0.048
0.980775,0.02285,0.03425
0.98255,0.02425,0.02985
0.9841333,0.0258333,0.0336
0.98274,0.0254,0.03978
0.983675,0.0287,0.046025
0.9899,0.028275,0.040825
0.993575,0.02555,0.04365
0.9895,0.02255,0.04255
0.98358,0.02042,0.04252
0.97624,0.02046,0.0449
0.982925,0.019175,0.04355
0.9887,0.01945,0.049325
0.988075,0.0203,0.0499
0.9839667,0.0234,0.0470667
0.98315,0.02415,0.04355
0.9843429,0.0241286,0.0402143
0.9836,0.0218,0.0449
0.9801,0.020875,0.042625
0.98175,0.021375,0.038775
0.98335,0.024075,0.051075
0.98395,0.0242,0.05575
0.987475,0.022275,0.04445
0.9830667,0.025,0.0389
0.98056,0.02656,0.03954
0.98115,0.0256,0.045125
0.984025,0.0229,0.042575
0.985125,0.02015,0.041525
0.9818,0.0222,0.041725
0.98285,0.024375,0.0447
0.9842,0.026,0.0524
0.98668,0.02398,0.045
0.987425,0.02115,0.037225
0.98255,0.021825,0.0546
0.980175,0.0201,0.0543
0.9798,0.0222,0.0503
0.985575,0.0212,0.047475
0.98506,0.02438,0.05048
0.98035,0.025625,0.045275
0.981125,0.0217,0.046525
0.985475,0.020275,0.046675
0.98865,0.021375,0.046775
0.988075,0.025775,0.0461
0.9846333,0.0275667,0.0409
0.98472,0.0271,0.0459
0.983625,0.0233,0.0529
0.9795667,0.0238,0.0477333
0.979625,0.02375,0.045325
0.9847,0.02475,0.050625
0.98815,0.0237,0.050325
0.986875,0.021875,0.0469
0.983775,0.023575,0.048125
0.983825,0.0249,0.046575
0.986075,0.023275,0.0454
0.985975,0.023275,0.046175
0.98365,0.022675,0.0348
0.9815,0.02645,0.04515
0.984125,0.0245,0.053025
0.984775,0.01895,0.04055
0.9835,0.01985,0.03615
0.982625,0.0226,0.0463
0.982225,0.02455,0.05185
0.9905,0.0201,0.03865
0.9925,0.017675,0.036875
0.985975,0.022825,0.041575
0.979625,0.027975,0.04215
0.97845,0.02925,0.042275
0.98295,0.025225,0.041225
0.98485,0.02375,0.04355
0.9858833,0.0221,0.0478333
0.983225,0.025,0.0427
0.985475,0.02365,0.035575
0.983525,0.0258,0.0356
0.9791,0.0267,0.0441
0.979675,0.02405,0.04275
0.987925,0.0212,0.03975
0.995125,0.0226,0.034575
0.987675,0.0269,0.037075
0.976775,0.03225,0.045925
0.97685,0.031025,0.038975
0.983875,0.0251,0.02955
0.991875,0.02125,0.03715
0.987875,0.023125,0.0464
0.9837,0.02695,0.038825
0.98445,0.027575,0.04105
0.98645,0.026075,0.0434
0.9803,0.0247,0.0425
0.97772,0.02422,0.03904
0.979675,0.0274,0.040075
0.9842,0.027875,0.04485
0.98745,0.022675,0.0397
0.986625,0.02315,0.039275
0.98205,0.028275,0.04525
0.9817667,0.0302333,0.0446
0.98764,0.02674,0.03786
0.991225,0.025275,0.0386
0.98585,0.02445,0.037475
0.981375,0.0259,0.039275
0.982975,0.02485,0.03195
0.9804,0.0246333,0.0400333
0.980275,0.02715,0.0483
0.97958,0.02758,0.04428
0.9846,0.0261667,0.0420667
0.991,0.0223,0.0426
0.989,0.0230667,0.0422833
0.97872,0.02858,0.04506
0.9758333,0.0317,0.0446
0.983275,0.0287,0.0402
0.990875,0.023,0.038675
0.98802,0.02274,0.04358
0.9854667,0.0243,0.0452667
0.98395,0.0242,0.040825
0.97825,0.028825,0.03985
0.972525,0.03385,0.044275
0.982425,0.02915,0.039775
0.9886,0.0259,0.0425
0.99105,0.023275,0.042875
0.98255,0.024375,0.046225
0.974675,0.0268,0.03895
0.9806,0.0273,0.034425
0.9925,0.02485,0.04365
0.9962,0.0208,0.0444
0.989525,0.019175,0.038225
0.975325,0.0253,0.049775
