accx,accy,accz
0.6269,0.040375,-0.0304
0.5283,-0.000175,0.090475
0.4784667,-0.0282333,0.1844
0.52228,0.00992,0.23654
0.636725,0.10345,0.270475
0.735675,0.1346,0.223825
0.765925,0.1803,0.22055
0.7788,0.2039333,0.3055667
0.83124,0.16176,0.32204
0.938475,0.12305,0.2303
1.069075,0.0665,0.06665
1.1455,0.098075,0.133975
1.2359,0.1374667,-0.1185333
1.35308,0.25466,0.19054
1.21065,0.418675,0.917675
1.088875,0.44035,0.553
1.49965,0.1559,-0.137475
1.5312,0.1673,-0.4727333
1.27542,0.12386,-0.48528
0.968425,0.141825,-0.22475
0.8855,0.09295,-0.1104
0.8453,0.113825,-0.014475
0.7951,0.1055333,0.0956333
0.92372,0.02852,-0.05082
1.1666333,0.0382333,-0.1420667
1.03882,0.0785,0.0955
0.8384,0.076025,0.097425
0.6941,0.071,0.0461333
0.57318,0.05816,0.04974
0.5711,0.0275667,0.1231333
0.65435,0.007075,0.1812
0.7401,-0.01336,0.17274
0.7486,-0.0192,0.1110667
0.833475,-0.0418,0.10795
0.965325,-0.01905,0.1695
1.0629,0.009075,0.18475
1.0623,0.002025,0.108375
1.02225,-0.004475,0.11185
1.07595,0.006175,0.126625
1.112,-0.02705,0.1908
1.192225,-0.1109,0.069225
1.258775,-0.115475,0.085475
1.406025,0.01975,0.008275
1.48955,0.096,-0.21185
1.369625,0.1362,-0.415575
1.21985,0.23895,-0.46655
1.1204,0.333775,-0.198025
1.1119667,0.3558667,0.0155667
1.09932,0.37626,0.06066
1.037675,0.33215,0.0398
1.026825,0.18175,-0.0593
0.94925,0.0133,-0.171325
0.8030667,-0.0426667,-0.2038333
0.679125,-0.047825,-0.13055
0.56132,-0.0246,0.06798
0.48145,0.0478,0.241175
0.475875,0.08725,0.29105
0.521825,0.112525,0.259425
0.604025,0.11625,0.211825
0.672575,0.111875,0.208675
0.703425,0.103525,0.275875
0.781325,0.079625,0.298975
0.8638,0.043425,0.278225
0.934125,0.01545,0.1141
1.09175,0.067475,0.21615
1.1685333,0.1409,-0.0115333
1.29322,0.24498,0.13012
1.2088333,0.4031667,0.6315667
1.091375,0.440975,0.695125
1.4504,0.19998,0.02864
1.64015,0.130275,-0.356
1.39105,0.114425,-0.387275
1.112325,0.153625,-0.265975
1.0268333,0.1297333,-0.2087
0.99586,0.12138,-0.05264
0.933475,0.13705,-0.0037
1.005525,0.0331,-0.136975
1.1187,0.0063,-0.1264
0.9455333,0.0657667,0.0059
0.79806,0.06366,0.0536
0.6103,0.117775,0.0441
0.5304667,0.1355333,0.0192
0.53804,0.1139,0.0567
0.6214667,0.0743333,0.0993333
0.692525,0.0513,0.119375
0.72488,-0.0038,0.15004
0.7569667,-0.0363333,0.0838
0.84145,-0.037825,0.097325
1.0063,-0.038325,0.1667
1.086825,-0.025825,0.18165
1.09936,0.02164,0.14212
1.1614333,0.0729,0.0799
1.193425,0.004225,0.109825
1.23505,-0.0966,0.036825
1.310075,-0.151525,0.12595
1.45225,0.049,-0.0139
1.516575,0.16035,-0.3006
1.311925,0.21635,-0.438625
1.198425,0.2741,-0.244725
1.274575,0.3092,-0.014875
1.328775,0.324925,0.024425
1.206625,0.35575,-0.0697
1.098975,0.2346,-0.0282
0.98455,0.135875,-0.103925
0.802025,0.04485,-0.0996
0.614175,-0.005975,-0.012775
0.489525,-0.022325,0.062925
0.420475,-0.034325,0.138275
0.37505,-0.03645,0.151875
0.395175,0.019375,0.185925
0.48615,0.07915,0.25975
0.5802,0.112075,0.280625
0.6663,0.145625,0.3092
0.8099,0.16745,0.3252
0.96905,0.125025,0.2474
1.1143,0.094175,0.104875
1.2413667,0.1257,0.2648333
1.33474,0.12594,-0.03834
1.405375,0.274,0.1643
1.4049,0.4387,0.73845
1.3073167,0.4064667,0.6976833
1.668375,0.186125,-0.21815
1.56825,0.101925,-0.5543
1.131725,0.096925,-0.54805
0.8352,0.177025,-0.327275
0.755875,0.11955,-0.113825
0.881775,0.1128,-0.03475
0.886725,0.1389,-0.076775
1.087625,0.0644,-0.218575
1.1987333,0.0649333,-0.1943667
0.94464,0.0691,0.13452
0.7565333,0.0067,0.1448333
0.6035,0.02298,0.01318
0.5182,-0.0152,0.0342
0.555575,-0.031875,0.141325
0.6875,-0.012575,0.1693
0.74485,-0.005325,0.20235
0.775075,-0.01595,0.156875
0.79455,-0.0387,0.102925
0.866925,-0.044725,0.0752
0.9628667,-0.0354333,0.0651333
1.0461,-0.021575,0.022025
1.1299,0.01132,0.17406
1.233525,-0.000425,0.237475
1.243825,-0.110125,-0.05625
1.2231667,-0.1627,-0.1117
1.30312,-0.21468,0.0545
1.364125,0.10965,-0.139875
1.4074,0.1662333,-0.3016
1.2752,0.23408,-0.37128
1.2279333,0.294,-0.0925
1.374375,0.24765,-0.08895
1.3903,0.2698,-0.1894
1.24795,0.312075,-0.1753
1.1082,0.2685,-0.0265
0.9788,0.219275,-0.08405
0.78055,0.119525,-0.059675
0.590425,0.035,0.016725
0.45375,-0.002925,0.0584
0.361125,-0.03335,0.10985
0.31785,-0.030725,0.147175
0.36155,0.046775,0.187775
0.50405,0.0612,0.29215
0.63895,0.07945,0.284925
0.711275,0.115925,0.238575
0.77105,0.143725,0.26225
0.9595,0.16755,0.28035
1.109575,0.133525,0.19055
1.240475,0.129,0.21115
1.299225,0.124775,-0.000175
1.41685,0.2301,-0.056275
1.29435,0.4406,0.740525
1.1511,0.406675,0.7642
1.507925,0.217425,-0.057525
1.668225,0.182725,-0.463975
1.418375,0.15235,-0.598375
1.06315,0.18405,-0.4158
0.883725,0.103875,-0.169125
0.765725,0.06695,0.022175
0.7452,0.06215,-0.001225
0.863575,-0.024575,-0.160825
1.0878,-0.0236,-0.22485
0.9559,0.051325,0.00045
0.787725,0.045275,0.13655
0.6668,0.08575,0.04
0.593575,0.13785,-0.01805
0.5862667,0.1283333,0.0643
0.68022,0.05612,0.11648
0.7399333,0.0168,0.1291667
0.73974,-0.02998,0.12186
0.802025,-0.05505,0.040825
0.9928,-0.064725,0.03885
1.061875,-0.04675,0.092775
1.036075,-0.022125,0.142575
0.9977,-0.01605,0.254175
1.0671333,0.0209667,0.1744
1.130275,-0.0299,0.08615
1.184075,-0.10465,-0.0604
1.267675,-0.18595,0.075425
1.37255,-0.079375,0.0257
1.44325,0.092275,-0.192825
1.30445,0.1373,-0.401625
1.1384,0.25174,-0.33612
1.1751,0.3217667,0.054
1.26405,0.26485,0.00535
1.211625,0.301875,-0.055
1.179025,0.299625,-0.0487
1.11865,0.205375,-0.0117
1.014325,0.09795,-0.065775
0.843225,0.042375,-0.12225
0.6968,0.003275,-0.10055
0.5568,0.005675,-0.034875
0.49,0.029775,0.0642
0.479375,0.0399,0.156
0.51475,0.05835,0.2177
0.611975,0.05535,0.252175
0.650425,0.079,0.258775
0.69105,0.096075,0.268275
0.778175,0.104,0.325325
0.853175,0.106625,0.27085
0.906775,0.0833,0.121225
1.085325,0.14515,0.2195
1.286925,0.199225,-0.16495
1.379625,0.296125,0.3638
1.31015,0.434675,0.88065
1.204725,0.37595,0.37715
1.539425,0.1824,-0.21585
1.547375,0.125675,-0.538575
1.2789,0.11595,-0.52345
0.93885,0.14065,-0.158425
0.88195,0.047175,-0.112475
0.839675,0.100175,-0.059925
0.909275,0.04015,-0.12255
1.081475,0.0421,-0.197125
1.0442,0.0913,-0.066775
0.852925,0.087075,0.107575
0.698575,0.074425,0.07805
0.606725,0.0836,0.0179
0.5786,0.06985,0.030325
0.608375,0.033925,0.1542
0.745075,-0.00775,0.25685
0.798675,-0.036625,0.2037
0.834425,-0.061625,0.0779
0.927225,-0.07045,0.10085
1.057675,-0.04355,0.159625
1.127,-0.014875,0.079325
1.086675,-0.00255,0.05735
1.002775,0.05365,0.1149
1.00975,0.06825,0.14145
1.045375,-0.073275,0.135075
1.197025,-0.162375,0.02785
1.316325,-0.103025,0.010375
1.5,0.0186,-0.0524333
1.51154,0.03656,-0.19792
1.3151,0.153025,-0.34355
1.180575,0.292575,-0.283025
1.08835,0.3843,0.009525
1.0020667,0.4175,0.1943
0.973275,0.467675,0.1154
0.98774,0.39544,0.11468
1.0393667,0.1871,-0.0058
0.94568,0.05264,-0.0797
0.7758,0.0147,-0.0518
0.717925,-0.00765,0.02975
0.61172,-0.01062,0.12062
0.5337667,0.0232333,0.1805
0.52295,0.0602,0.217575
0.63572,0.11344,0.29942
0.7130333,0.1032667,0.3054
0.7515,0.11575,0.245575
0.756625,0.1372,0.2386
0.813125,0.12325,0.31345
0.86235,0.11275,0.4209
0.9148,0.134,0.327875
0.9658,0.141975,0.2037
1.146125,0.13835,-0.054125
1.279275,0.268,0.2086
1.32605,0.406,0.778575
1.45725,0.36805,0.46165
1.58985,0.22935,-0.0829
1.400825,0.21735,-0.461425
1.173425,0.144475,-0.545975
0.9402,0.09025,-0.248525
0.8166,0.041875,-0.00405
0.7703333,0.0123333,0.1431
0.87132,0.00266,0.06836
1.01365,-0.00545,-0.10845
1.0627,0.044425,-0.106525
0.951675,0.078225,0.08105
0.82115,0.089625,0.027425
0.707725,0.09355,-0.061875
0.6481,0.0855,-0.0115667
0.67016,0.05614,0.12924
0.76825,0.04265,0.191375
0.8368,0.01765,0.206775
0.852125,-0.0346,0.171025
0.84095,-0.05095,0.1021
0.8637,-0.0642,0.1161333
0.9687,-0.07874,0.1215
0.9909,-0.013925,0.070925
0.99995,0.0162,0.038
1.065825,0.041775,0.068425
1.088325,-0.02505,0.054775
1.1743,-0.04375,0.004325
1.23835,-0.05835,0.0213
1.396925,0.038725,-0.041025
1.45175,0.1291,-0.149325
1.323475,0.147025,-0.3668
1.2574,0.24695,-0.392775
1.1619,0.3256,-0.189775
1.160375,0.31745,-0.0192
1.055625,0.382,-0.030825
0.98115,0.35585,-0.02735
0.9759333,0.2502667,-0.0087
0.9219,0.11848,-0.06968
0.8056667,0.0773333,-0.0548667
0.761475,0.02135,0.00395
0.68168,0.03618,0.05774
0.597075,0.07065,0.137475
0.575625,0.08935,0.169275
0.6105333,0.1788,0.1696
0.70328,0.17214,0.23366
0.7823,0.1597,0.2198
0.789625,0.16615,0.225525
0.78315,0.12755,0.223575
0.8154,0.1062,0.217525
0.90435,0.096775,0.159675
1.05075,0.13305,0.1334
1.181525,0.21585,0.192375
1.33735,0.316775,0.104475
1.2469,0.477625,0.55385
1.2613333,0.5042,0.6314667
1.43668,0.28398,0.20804
1.491175,0.124875,-0.273
1.30185,-0.00385,-0.43165
0.9809,0.0115,-0.439325
0.68525,0.0547,-0.225975
0.59295,0.0754,-0.088775
0.67725,0.16575,0.081075
0.847925,0.207025,0.163675
1.10245,0.142625,0.00335
1.111775,0.18065,-0.06725
1.006975,0.18515,-0.01725
0.9007,0.061475,-0.119925
0.8433,0.0148,-0.2002
0.7411286,-0.0088,-0.0865714
0.657875,-0.017625,0.15445
0.702175,0.021075,0.206875
0.734825,0.045725,0.203425
0.7763,0.02815,0.135725
0.8176,-0.02365,0.133425
0.9075,-0.030775,0.104025
0.98095,-0.023775,0.07055
1.092,-0.07205,0.047025
1.075475,-0.009525,0.094
1.043475,-0.017425,0.136475
1.081175,-0.07835,0.063325
1.192,-0.10895,0.029425
1.28045,-0.1438,0.0711
1.354825,-0.02525,0.108875
1.3643,0.025175,-0.058825
1.3116,0.019775,-0.256025
1.22055,0.115375,-0.24545
1.10375,0.20575,-0.106175
1.17265,0.2486,-0.173675
1.1542,0.353525,-0.278325
1.108025,0.40715,0.010425
1.080325,0.38185,0.0663
0.978875,0.236875,-0.05345
0.8017,0.1545,-0.1811
0.72,0.0742333,-0.1117
0.65435,0.01625,0.0606
0.56482,0.01392,0.13178
0.502575,-0.0066,0.157375
0.4942,-0.0436667,0.1895667
0.5948,0.093625,0.267875
0.688975,0.125725,0.331075
0.7768,0.14436,0.39522
0.8258667,0.1494667,0.4716333
0.85458,0.09712,0.52824
0.8892333,0.0673,0.2187333
0.9821,0.0239,0.011575
1.16324,0.03714,0.01846
1.4146667,0.1612,-0.0251667
1.330825,0.296875,0.70225
1.2324,0.39835,0.905775
1.190625,0.24895,0.39425
1.39305,0.0886,-0.135
1.460225,0.050425,-0.341325
1.3295,-0.0022,-0.38305
1.0478,0.119725,-0.1398
0.855325,0.15715,0.07735
0.72245,0.150925,0.13995
0.776675,0.07185,0.125475
0.993225,-0.057675,0.08825
1.079825,-0.013875,-0.1148
0.999775,0.070875,-0.190525
0.854325,0.0842,-0.032975
0.721375,0.1606,0.064825
0.645175,0.147325,0.0705
0.5135,0.225425,-0.001975
0.587975,0.100075,0.045775
0.790725,0.038025,0.21165
0.8294,0.0289,0.2486
0.8933333,-0.0017833,0.20025
0.865825,0.01895,0.077875
0.95255,0.023575,0.192875
0.992825,0.0209,0.104975
1.1009,-0.0378,0.106475
1.155575,0.009575,0.1627
1.184025,0.04765,0.158425
1.04285,-0.008325,0.153425
1.124075,-0.05825,0.1742
1.258825,0.00035,0.217275
1.418575,0.090825,0.188725
1.4372,0.070275,-0.1362
1.244875,0.136925,-0.387775
1.047325,0.218825,-0.302825
1.0057,0.27775,-0.010175
1.05875,0.231075,0.157575
1.0770333,0.2488,0.1134
1.07174,0.29356,0.05498
1.071,0.2218,0.0083667
1.04464,0.0997,-0.03374
0.8668667,-0.0071333,-0.0697
0.716625,0.004075,-0.0648
0.555375,0.041225,-0.018425
0.47518,0.07256,0.09886
0.5017,0.0555,0.1993333
0.61386,0.1177,0.22898
0.7114333,0.1223,0.1985667
0.75312,0.14072,0.16878
0.7669667,0.177,0.2707333
0.839425,0.14295,0.3692
0.93585,0.10345,0.298725
0.992425,0.09215,0.033325
1.04836,0.14096,-0.07736
1.2745,0.2456667,-0.0641667
1.34055,0.34765,0.663725
1.2876,0.53745,0.8401
1.27275,0.31245,0.26345
1.518725,0.238025,-0.288425
1.516825,0.183875,-0.5017
1.271225,0.11165,-0.37115
0.9283,0.0151,-0.152675
0.7631,-0.045575,-0.186375
0.62175,0.045525,-0.00505
0.717625,0.123975,0.112475
1.025275,0.08795,0.022625
1.073075,0.1156,0.00565
0.97945,0.129075,0.0071
0.853525,0.123325,-0.098175
0.74825,0.096375,-0.09745
0.685125,0.0879,0.00535
0.684275,0.08315,0.11395
0.751375,0.053175,0.1347
0.77125,0.0391,0.107325
0.829275,-0.013025,0.060575
0.87335,-0.041675,0.05345
0.9703,-0.046775,0.108625
1.0049,-0.02015,0.118275
1.0506,-0.034575,0.050525
1.0807,0.012825,0.06645
1.0632,0.09545,0.08075
1.05355,-0.035325,0.0934
1.05855,-0.05585,-0.064275
1.2313,-0.047925,-0.036025
1.52765,0.01075,0.0578
1.536675,0.0903,-0.007725
1.291075,0.075725,-0.3127
1.0534,0.1146,-0.5121667
0.90606,0.16738,-0.38246
0.9248,0.22005,-0.052025
1.02905,0.2294,0.10665
1.151625,0.2604,-0.0387
1.1849667,0.3047667,-0.021
1.12282,0.25874,0.00796
0.91185,0.159975,-0.1454
0.76645,0.132775,-0.2772
0.6854,0.05125,-0.1844
0.6245,0.0200667,-0.0019
0.54878,0.00618,0.2014
0.536325,0.06385,0.29775
0.6200333,0.1135,0.2864333
0.71622,0.0907,0.28714
0.7457333,0.0965333,0.2659
0.736,0.07328,0.29982
0.7868667,0.051,0.3624333
0.87192,0.05358,0.19244
1.007775,0.021325,-0.035225
1.1790333,0.1047333,0.0028
1.413975,0.207025,-0.05195
1.36195,0.44905,0.477525
1.1319,0.4313,0.66422
1.118375,0.205325,0.2724
1.3665,0.1190667,-0.1320667
1.496575,0.183,-0.14565
1.384525,0.226425,-0.1572
1.06138,0.09454,-0.07684
0.8209333,-0.0331333,-0.1154667
