accx,accy,accz
0.98058,0.00556,0.11396
0.981775,0.00945,0.139325
0.97948,0.00554,0.12274
0.98085,0.00305,0.128225
0.973975,0.007625,0.12915
0.9716,0.0051333,0.1328333
0.9768,0.00512,0.12826
0.98645,-0.00035,0.1187
0.9809667,0.00255,0.1220667
0.97825,0.00955,0.123775
0.9670333,0.0160667,0.1239667
0.9737,0.01655,0.126725
0.9807,0.0129667,0.1298
0.97724,0.00948,0.12616
0.985975,0.004475,0.11315
0.9832,0.00585,0.11485
0.979,0.0105,0.128425
0.9786667,0.0153333,0.1073333
0.97654,0.0124,0.11084
0.9817,0.008125,0.13
0.9843,0.0056,0.123575
0.9925,-0.00065,0.09835
0.9839667,0.0037,0.0960333
0.97372,0.00906,0.11316
0.976875,0.009,0.116025
0.97955,0.012725,0.092525
0.98335,0.00985,0.0959
0.9803667,0.0041667,0.0988333
0.98852,-0.00266,0.09886
0.979475,0.006525,0.077725
0.9746,0.01305,0.063425
0.970675,0.02205,0.0857
0.9962,0.0145333,0.0991
0.99462,0.00758,0.07954
0.97765,0.0033,0.08185
0.973575,0.007125,0.096025
0.980875,0.008775,0.091625
0.9799,0.0059,0.0886
0.9772,0.0052,0.09198
0.9862,0.006225,0.09625
0.97535,0.006375,0.093475
0.9633,0.00715,0.080025
0.9695333,0.0017,0.0829
0.98698,0.00414,0.10322
1.001925,0.003975,0.065525
1.009325,0.002925,0.01995
1.0023667,0.0042667,0.0438
0.992775,0.0156,0.065475
0.9894333,0.0245333,0.0408333
0.9827833,0.0237667,0.0556833
0.988825,0.0321,0.0728
0.9947333,0.0222,0.0725333
0.99135,0.014225,0.06465
0.9878,0.017275,0.076425
0.98482,0.0165,0.06622
0.9789,0.021925,0.075825
0.9839,0.015025,0.074625
0.9812667,0.0057333,0.09
0.970025,0.008625,0.107925
0.9785,0.00562,0.08262
0.990925,0.003775,0.051475
0.9836333,0.0049,0.0830667
0.969025,0.010625,0.08355
0.976025,0.00915,0.0784
0.983525,0.00865,0.060325
0.9922,0.0093,0.05865
0.9988,0.011225,0.05945
0.9928,0.0175,0.0641333
0.97834,0.021,0.05876
0.97985,0.01715,0.058575
0.98375,0.013625,0.078575
0.987175,0.00585,0.069175
0.98505,0.0061,0.05675
0.97635,0.01105,0.0864
0.97895,0.01145,0.104075
0.9809,0.007875,0.094875
0.982825,0.01075,0.0736
0.9817,0.013625,0.0486
0.978125,0.019425,0.06915
0.98145,0.01895,0.090475
0.98255,0.0196,0.084375
0.99215,0.011025,0.061925
0.9947333,0.0129333,0.0638333
0.98322,0.01958,0.09002
0.974975,0.02015,0.1005
0.9721,0.013725,0.09125
0.979475,0.009375,0.079975
0.9840333,0.0109333,0.0767667
0.9839667,0.0144333,0.0871333
0.9807833,0.01435,0.0930333
0.9898,0.0101,0.078675
0.9901,0.007025,0.06625
0.9833333,0.0109333,0.0917667
0.9832333,0.0102,0.0918
0.9780167,0.0117833,0.0808833
0.98225,0.011675,0.08185
0.98805,0.008125,0.079975
0.9894333,0.0067667,0.0803
0.9896,0.0081667,0.0821667
0.9830333,0.01325,0.0786167
0.980325,0.01025,0.085375
0.9866667,0.0054667,0.0901333
0.991875,0.00055,0.076475
0.9887,0.0033,0.0594333
0.9815667,0.0085667,0.059
0.9758429,0.0147429,0.0681143
0.9786667,0.0146,0.0675
0.98275,0.013175,0.060775
0.9910667,0.0099667,0.0579
0.9922,0.0083667,0.0601167
0.985425,0.01275,0.067525
0.9798333,0.0176,0.0687
0.9794,0.01768,0.06444
0.97855,0.01545,0.0642
0.9793667,0.0158333,0.0817
0.9849714,0.0149857,0.0816286
0.98715,0.016175,0.0678
0.98575,0.014975,0.054625
0.9833,0.01645,0.05285
0.97695,0.021275,0.06885
0.9760667,0.0246167,0.0838167
0.9852,0.0203667,0.0714333
0.9921333,0.0187333,0.0587667
0.9905,0.0187,0.061925
0.9790667,0.0213167,0.0783833
0.9775333,0.0202333,0.0722333
0.9806,0.021025,0.0719
0.985,0.0201,0.078375
0.9919,0.0174,0.07005
0.9897,0.017025,0.0757
0.9785,0.02295,0.079
0.975575,0.0231,0.06895
0.9768667,0.0261667,0.068
0.9827,0.02724,0.07136
0.98435,0.02015,0.068575
0.984675,0.017775,0.07055
0.98455,0.020275,0.0676
0.986225,0.02525,0.071175
0.989125,0.0225,0.08365
0.984625,0.017975,0.071175
0.98035,0.023625,0.06335
0.973625,0.029575,0.072025
0.9751667,0.027,0.0725
0.98072,0.02364,0.0671
0.986525,0.02105,0.066525
0.989325,0.021625,0.073925
0.988975,0.0182,0.06285
0.9841333,0.0186,0.0602333
0.98098,0.02374,0.06388
0.9796,0.02465,0.065
0.981525,0.019725,0.0606
0.9883,0.016125,0.0722
0.986625,0.0174,0.074775
0.98245,0.01815,0.0604
0.97734,0.02414,0.05984
0.98526,0.027,0.07388
0.9878,0.023175,0.072125
0.9831667,0.0199,0.0613
0.9806,0.01826,0.0618
0.97955,0.019425,0.067275
0.986675,0.016,0.062
0.98525,0.015275,0.0606
0.982975,0.017975,0.06095
0.984025,0.022725,0.06605
0.985775,0.021425,0.06855
0.984925,0.01705,0.068175
0.980575,0.016475,0.067425
0.98005,0.0164,0.06395
0.9778,0.0192,0.0699
0.9814,0.02055,0.0702
0.9901429,0.0183714,0.0656
0.984225,0.020775,0.066325
0.9796333,0.0240333,0.0602667
0.9794,0.0228333,0.0588
0.9817833,0.0234333,0.0710167
0.98475,0.022875,0.06805
0.9891667,0.0192333,0.0607333
0.99205,0.0177,0.058875
0.9843,0.0227333,0.0678
0.97605,0.02775,0.0672167
0.9775333,0.0284667,0.0733
0.98755,0.0221,0.0606
0.989275,0.0188,0.067825
0.9834333,0.0227667,0.0743667
0.98378,0.02254,0.05426
0.984275,0.025225,0.06175
0.9834,0.024325,0.0697
0.9792333,0.0232667,0.0553667
0.983,0.0188,0.05432
0.98625,0.0196,0.06915
0.991275,0.017425,0.0581
0.981825,0.023375,0.069275
0.9748333,0.0249333,0.0613
0.97904,0.02594,0.05746
0.985,0.0253,0.068775
0.9865,0.01985,0.054925
0.9829,0.019675,0.05065
0.9811333,0.0239333,0.0599333
0.98594,0.0222,0.05602
0.98405,0.022225,0.059125
0.981225,0.02065,0.059675
0.981125,0.019425,0.059625
0.9787,0.021525,0.063325
0.98395,0.022675,0.061575
0.9859,0.019625,0.05945
0.985,0.0186,0.06265
0.981925,0.0192,0.064
0.9812,0.0217667,0.0621
0.98498,0.02174,0.0595
0.989625,0.0184,0.0562
0.98165,0.01795,0.05535
0.978525,0.022725,0.061625
0.98415,0.023675,0.06615
0.989325,0.02425,0.066375
0.989525,0.01905,0.05405
0.983025,0.0182,0.05715
0.9785,0.0217,0.06295
0.9792333,0.0246333,0.0624667
0.98824,0.02376,0.06208
0.99115,0.02285,0.05125
0.98865,0.0225,0.0567
0.982575,0.0242,0.068475
0.9831667,0.0223333,0.0626667
0.9828333,0.0191667,0.0511333
0.9819667,0.01785,0.0598333
0.978575,0.02385,0.07525
0.9798,0.0249333,0.0669333
0.9851,0.0242,0.05845
0.98768,0.0234,0.047
0.987875,0.018325,0.060225
0.981,0.017775,0.062075
0.9751667,0.0203333,0.0501667
0.97806,0.0232,0.05502
0.9852667,0.0224333,0.0631667
0.99,0.01906,0.06066
0.987,0.018075,0.063575
0.9847667,0.0168,0.0627667
0.980175,0.014775,0.07175
0.9789667,0.0156,0.0746
0.9829,0.0137333,0.0610667
0.9843571,0.0170714,0.0636571
0.98155,0.0204,0.072225
0.9858,0.0188,0.063575
0.991,0.01555,0.0566
0.9939333,0.016,0.0583667
0.98715,0.0165333,0.0571667
0.97604,0.01944,0.06626
0.9738667,0.0204,0.0639
0.9796,0.0198333,0.0512667
0.9866667,0.0192333,0.0539667
0.9882429,0.0173857,0.0595714
0.9785667,0.0184333,0.0625333
0.980625,0.01845,0.064625
0.9872,0.017925,0.06015
0.982,0.0223,0.06315
0.976475,0.023825,0.06165
0.9798,0.02425,0.06365
0.988525,0.02015,0.0526
0.989325,0.0171,0.04845
0.9863,0.01675,0.0569
0.984025,0.0179,0.0605
0.9863,0.01785,0.061925
0.9864,0.017425,0.052475
0.98325,0.019575,0.05955
0.9813,0.020225,0.0678
0.983,0.01545,0.057575
0.985775,0.01325,0.06165
0.98735,0.018375,0.06825
0.979725,0.023575,0.06165
0.976875,0.024775,0.0571
0.98005,0.0251,0.0582
0.9862,0.020175,0.06695
0.986575,0.01905,0.06115
0.985675,0.0183,0.051775
0.987175,0.021875,0.05315
0.9862,0.02025,0.0543
0.980975,0.01955,0.066025
0.97915,0.01965,0.070075
0.980925,0.019425,0.06525
0.988225,0.0185,0.064125
0.988475,0.017075,0.06705
0.9833,0.0171,0.067
0.977175,0.01945,0.06175
0.98365,0.0179,0.0586
0.99065,0.01825,0.054225
0.985675,0.0189,0.05785
0.978525,0.022225,0.063175
0.981325,0.0226,0.060925
0.98915,0.01925,0.06395
0.9935333,0.0167,0.0668667
0.9855,0.0172,0.0602714
0.9744,0.022375,0.066725
0.97885,0.023375,0.065125
0.9824,0.0241,0.0676
0.98525,0.021,0.062275
0.9872333,0.0165,0.0646667
0.9851667,0.0164,0.0574667
0.985775,0.017975,0.0513
0.9822667,0.0211,0.0568333
0.9776667,0.02475,0.0651
0.984425,0.01705,0.056425
0.9915667,0.0116667,0.0623
0.988775,0.0135,0.0731
0.980875,0.016625,0.073
0.9748667,0.0208,0.0710667
0.9778,0.0222667,0.0672333
0.9834,0.0228667,0.0605167
0.987775,0.0204,0.0629
0.9868,0.018775,0.0684
0.982425,0.0188,0.060625
0.984,0.017525,0.05205
0.9878,0.0198,0.06505
0.98285,0.021875,0.069975
0.980825,0.020775,0.061075
0.982875,0.020275,0.0598
0.98535,0.018975,0.070875
0.984475,0.018475,0.072325
0.9798,0.0177,0.0669
0.979175,0.021525,0.055275
0.98455,0.026325,0.062125
0.989525,0.022475,0.068975
0.989975,0.015075,0.059125
0.98615,0.00985,0.05295
0.97505,0.018275,0.073125
0.96945,0.02515,0.0801
0.9845333,0.0235333,0.0713167
0.9906,0.0189,0.0634
0.983675,0.02095,0.06005
0.978025,0.0258,0.0637
0.980225,0.02505,0.0668
0.985975,0.020275,0.060675
0.986325,0.01845,0.057725
0.985925,0.022475,0.059925
0.984475,0.026875,0.05465
0.9805,0.024,0.061575
0.9768,0.022925,0.073375
0.9834,0.014625,0.06155
0.986075,0.013625,0.05485
0.9889,0.017225,0.0717
0.9857,0.0182,0.073475
0.9843,0.0201,0.06495
0.981375,0.02335,0.05975
0.981975,0.026575,0.0655
0.983525,0.026325,0.067325
0.984075,0.023825,0.06015
0.985675,0.021975,0.0556
0.9864,0.0216,0.059875
0.983425,0.02455,0.065275
0.98345,0.023225,0.064775
0.9804,0.02125,0.062925
0.98165,0.01895,0.065125
0.9804,0.017,0.075075
0.982225,0.0201,0.0779
0.9819,0.02155,0.0714
0.98546,0.01996,0.06638
0.9863,0.01834,0.06114
0.98315,0.02045,0.065
0.9832667,0.0208667,0.0665333
0.98525,0.018675,0.06425
0.9836,0.02064,0.06506
0.981675,0.022825,0.06745
0.98255,0.02315,0.068975
0.9882,0.0186,0.0629
0.9856,0.01676,0.06902
0.97705,0.023,0.0713
0.97504,0.0254,0.06442
0.98275,0.022475,0.059975
0.9913,0.017475,0.0692
0.9858,0.0172,0.06842
0.9808,0.0197667,0.0732333
0.9798,0.021175,0.069175
0.981175,0.0218,0.0642
0.9867,0.02275,0.0603
0.9839,0.021425,0.0716
0.9821,0.02045,0.07375
0.986325,0.0171,0.06335
0.98945,0.0165,0.063875
0.983525,0.021975,0.070125
0.979675,0.026025,0.0681
0.9813,0.0273,0.059675
0.984075,0.023475,0.0609
0.984075,0.0199,0.064625
0.98315,0.0174,0.067425
0.9825,0.0201,0.06725
0.98395,0.021925,0.068475
0.9861,0.020075,0.0639
0.986325,0.019425,0.0605
0.9821,0.020225,0.069925
0.978275,0.021875,0.0705
0.982175,0.019,0.0647
0.9859,0.017425,0.063225
0.9845,0.019625,0.060175
0.980775,0.024825,0.068125
0.9826,0.023825,0.065475
0.987125,0.0225,0.06055
0.988175,0.01905,0.054225
0.9848,0.0209,0.0628
0.98115,0.022375,0.0634
0.98205,0.021575,0.063775
0.983825,0.020575,0.067575
0.9851,0.020225,0.057375
0.984325,0.019325,0.06305
0.9873,0.016575,0.07335
0.986875,0.01615,0.063525
0.98345,0.0201,0.05935
0.9775,0.025175,0.066875
0.981825,0.02225,0.0677
0.983875,0.02035,0.06935
0.9831667,0.0192333,0.0639
0.98182,0.0194,0.07082
0.98375,0.01905,0.07325
0.984025,0.020175,0.0625
0.9794333,0.0250333,0.0619667
0.98258,0.02366,0.06202
0.9897,0.018825,0.0643
0.98915,0.016925,0.065125
0.982875,0.02175,0.06425
0.9808,0.0244,0.0606
0.9805667,0.0261667,0.0606
0.981,0.0239167,0.0664667
0.98145,0.02235,0.074225
0.9834667,0.0210667,0.0636
0.984875,0.021075,0.063925
0.9875,0.0188,0.0673
0.9857,0.0197333,0.0683333
0.9804667,0.02145,0.0628667
0.9787333,0.0245333,0.0621333
0.983025,0.025,0.059425
0.986675,0.022625,0.05985
0.9862,0.0236,0.0736
0.9858333,0.0240167,0.0592667
0.98455,0.024575,0.059075
0.984825,0.025425,0.06915
0.98025,0.02465,0.0709
0.9787,0.02415,0.0665
0.9821,0.027625,0.063275
0.9795,0.0292,0.07105
0.97625,0.031275,0.0673
0.993075,0.01755,0.048
0.98965,0.0234,0.060525
0.9793,0.027425,0.064375
0.97865,0.02665,0.05575
0.98115,0.024475,0.066625
0.9915667,0.0192333,0.0681333
0.98878,0.01954,0.06216
0.9855,0.020325,0.063625
0.97955,0.02115,0.071525
0.97845,0.022325,0.0725
0.980225,0.016875,0.0623
0.9808,0.017775,0.0678
0.989075,0.0168,0.07525
0.99025,0.0193,0.06715
0.980775,0.02145,0.05285
0.975325,0.022875,0.06635
0.982725,0.0197,0.072875
0.98745,0.017125,0.062075
0.9834,0.019075,0.054275
0.97935,0.019675,0.06775
0.978775,0.021275,0.070425
0.987375,0.01985,0.052525
0.985175,0.02045,0.0577
0.9859,0.020525,0.070625
0.9839,0.022225,0.0537
0.99215,0.01865,0.03695
0.989025,0.0187,0.050875
0.9813,0.02005,0.0525
0.978575,0.021575,0.0617
0.98195,0.020575,0.062175
0.984925,0.020425,0.052575
0.987075,0.0204,0.05215
0.9886,0.01815,0.057525
0.9848667,0.0208667,0.0618
0.982725,0.0202,0.0516
0.979825,0.02315,0.048175
0.98032,0.02316,0.0559
0.9823,0.022625,0.052375
0.98755,0.02275,0.054925
0.9864,0.0221667,0.0497333
0.98458,0.0215,0.05126
0.9794,0.0235667,0.0581
0.97958,0.02434,0.05698
0.98515,0.022175,0.0436
0.9796,0.0259333,0.0443667
0.984275,0.023825,0.05285
0.9876,0.0223,0.051425
0.98355,0.02315,0.0477
0.98685,0.02205,0.048975
0.9872,0.02095,0.051525
0.98285,0.02505,0.0508
0.9806333,0.0273333,0.05
0.9818,0.02745,0.05065
0.9824143,0.0257,0.0526
0.986525,0.02025,0.04965
0.988425,0.020025,0.05135
0.98445,0.024625,0.0539
0.984675,0.023825,0.047825
0.97955,0.0251,0.05375
0.978325,0.0246,0.058625
0.981825,0.02455,0.053825
0.987075,0.024875,0.04625
0.9884667,0.0283,0.0430667
0.98752,0.0265,0.04742
0.9867,0.02895,0.0441
0.98425,0.0298,0.040975
0.9822,0.0307,0.0411
0.9824,0.02736,0.0499
0.98322,0.0256,0.0451
0.9821,0.0287,0.05165
0.98565,0.0286,0.0542
0.98695,0.024625,0.048375
0.9842,0.025025,0.04875
0.9826,0.026625,0.049
0.984025,0.02645,0.045625
0.984375,0.0251,0.048175
0.98515,0.0235,0.04545
0.9851,0.02525,0.04275
0.9816,0.02715,0.048925
0.979025,0.026925,0.05155
0.983275,0.022375,0.043175
0.98665,0.023325,0.043425
0.987125,0.02115,0.04085
0.98365,0.02425,0.047825
0.982275,0.026525,0.0479
0.98035,0.026275,0.04395
0.980025,0.02695,0.0472
0.983225,0.02435,0.046325
0.98265,0.024825,0.051375
0.982725,0.02435,0.05155
0.9840333,0.0242,0.0416667
0.984625,0.0238,0.0437
0.98866,0.0222,0.04424
0.990075,0.0236,0.036025
0.9817667,0.0292667,0.0385667
0.97765,0.030725,0.048025
0.977675,0.029625,0.053225
0.98645,0.023875,0.0477
0.98996,0.02042,0.04246
0.9880333,0.0218667,0.0469
0.986075,0.024575,0.048725
0.984325,0.024675,0.045625
0.98075,0.025225,0.043925
0.982775,0.025175,0.051075
0.985825,0.02345,0.04545
0.98695,0.023325,0.044525
0.9893,0.022175,0.043525
0.984275,0.021325,0.045575
0.980325,0.025475,0.0535
0.980175,0.0274,0.045925
0.984,0.024025,0.0389
0.986725,0.019725,0.0431
0.9837,0.01995,0.048975
0.98055,0.0214,0.048
0.980775,0.02285,0.03425
0.98255,0.02425,0.02985
0.9841333,0.0258333,0.0336
0.98274,0.0254,0.03978
0.983675,0.0287,0.046025
0.9899,0.028275,0.040825
0.993575,0.02555,0.04365
0.9895,0.02255,0.04255
0.98358,0.02042,0.04252
0.97624,0.02046,0.0449
0.982925,0.019175,0.04355
0.9887,0.01945,0.049325
0.988075,0.0203,0.0499
0.9839667,0.0234,0.0470667
0.98315,0.02415,0.04355
0.9843429,0.0241286,0.0402143
0.9836,0.0218,0.0449
0.9801,0.020875,0.042625
0.98175,0.021375,0.038775
0.98335,0.024075,0.051075
0.98395,0.0242,0.05575
0.987475,0.022275,0.04445
0.9830667,0.025,0.0389
0.98056,0.02656,0.03954
0.98115,0.0256,0.045125
0.984025,0.0229,0.042575
0.985125,0.02015,0.041525
0.9818,0.0222,0.041725
0.98285,0.024375,0.0447
0.9842,0.026,0.0524
0.98668,0.02398,0.045
0.987425,0.02115,0.037225
0.98255,0.021825,0.0546
0.980175,0.0201,0.0543
0.9798,0.0222,0.0503
0.985575,0.0212,0.047475
0.98506,0.02438,0.05048
0.98035,0.025625,0.045275
0.981125,0.0217,0.046525
0.985475,0.020275,0.046675
0.98865,0.021375,0.046775
0.988075,0.025775,0.0461
0.9846333,0.0275667,0.0409
0.98472,0.0271,0.0459
0.983625,0.0233,0.0529
0.9795667,0.0238,0.0477333
0.979625,0.02375,0.045325
0.9847,0.02475,0.050625
0.98815,0.0237,0.050325
0.986875,0.021875,0.0469
0.983775,0.023575,0.048125
0.983825,0.0249,0.046575
0.986075,0.023275,0.0454
0.985975,0.023275,0.046175
0.98365,0.022675,0.0348
0.9815,0.02645,0.04515
0.984125,0.0245,0.053025
0.984775,0.01895,0.04055
0.9835,0.01985,0.03615
0.982625,0.0226,0.0463
0.982225,0.02455,0.05185
0.9905,0.0201,0.03865
0.9925,0.017675,0.036875
0.985975,0.022825,0.041575
0.979625,0.027975,0.04215
0.97845,0.02925,0.042275
0.98295,0.025225,0.041225
0.98485,0.02375,0.04355
0.9858833,0.0221,0.0478333
0.983225,0.025,0.0427
0.985475,0.02365,0.035575
0.983525,0.0258,0.0356
0.9791,0.0267,0.0441
0.979675,0.02405,0.04275
0.987925,0.0212,0.03975
0.995125,0.0226,0.034575
0.987675,0.0269,0.037075
0.976775,0.03225,0.045925
0.97685,0.031025,0.038975
0.983875,0.0251,0.02955
0.991875,0.02125,0.03715
0.987875,0.023125,0.0464
0.9837,0.02695,0.038825
0.98445,0.027575,0.04105
0.98645,0.026075,0.0434
0.9803,0.0247,0.0425
0.97772,0.02422,0.03904
0.979675,0.0274,0.040075
0.9842,0.027875,0.04485
0.98745,0.022675,0.0397
0.986625,0.02315,0.039275
0.98205,0.028275,0.04525
0.9817667,0.0302333,0.0446
0.98764,0.02674,0.03786
0.991225,0.025275,0.0386
0.98585,0.02445,0.037475
0.981375,0.0259,0.039275
0.982975,0.02485,0.03195
0.9804,0.0246333,0.0400333
0.980275,0.02715,0.0483
0.97958,0.02758,0.04428
0.9846,0.0261667,0.0420667
0.991,0.0223,0.0426
0.989,0.0230667,0.0422833
0.97872,0.02858,0.04506
0.9758333,0.0317,0.0446
0.983275,0.0287,0.0402
0.990875,0.023,0.038675
0.98802,0.02274,0.04358
0.9854667,0.0243,0.0452667
0.98395,0.0242,0.040825
0.97825,0.028825,0.03985
0.972525,0.03385,0.044275
0.982425,0.02915,0.039775
0.9886,0.0259,0.0425
0.99105,0.023275,0.042875
0.98255,0.024375,0.046225
0.974675,0.0268,0.03895
0.9806,0.0273,0.034425
0.9925,0.02485,0.04365
0.9962,0.0208,0.0444
0.989525,0.019175,0.038225
0.975325,0.0253,0.049775
0.978025,0.026575,0.051925
0.9862,0.02125,0.04
0.990975,0.01965,0.039875
0.98335,0.02365,0.043475
0.9793,0.027325,0.044225
0.98405,0.02525,0.0424
0.9861,0.02375,0.03795
0.98525,0.023225,0.04525
0.98525,0.0228,0.046725
0.98545,0.023325,0.039975
0.98675,0.0221,0.041275
0.98615,0.023275,0.037925
0.98295,0.026975,0.041375
0.98015,0.028125,0.045
0.984675,0.025575,0.04365
0.985425,0.024225,0.031225
0.98155,0.027125,0.03105
0.982775,0.0294,0.03965
0.9843,0.0261,0.041025
0.991525,0.017875,0.032775
0.98695,0.020725,0.03405
0.978575,0.0267,0.044575
0.97575,0.028625,0.054625
0.980175,0.0256,0.0391
0.9889,0.0226,0.0312
0.9918,0.02345,0.037675
0.989125,0.02345,0.037
0.98585,0.0242,0.0319
0.9826,0.0261,0.036025
0.9795,0.0279,0.0417
0.9796667,0.0258333,0.0407667
0.9823333,0.0222667,0.0376667
0.98324,0.02304,0.04118
0.98645,0.025225,0.039225
0.985725,0.0262,0.0369
0.982975,0.024025,0.034675
0.9848667,0.0240667,0.035
0.986825,0.022375,0.03335
0.98552,0.02302,0.03648
0.9853667,0.0226667,0.0382333
0.9835,0.02326,0.03842
0.9852,0.0257,0.0405333
0.985625,0.0269,0.04365
0.9838,0.024125,0.0378
0.9846333,0.0239667,0.0318
0.9849,0.02444,0.03494
0.98615,0.023775,0.037675
0.982,0.022425,0.0416
0.980475,0.02175,0.040775
0.9823,0.02245,0.0359
0.98665,0.0229,0.0326
0.987375,0.024,0.038725
0.985325,0.023625,0.043725
0.98385,0.021675,0.03645
0.9852333,0.0212,0.0302667
0.98404,0.02236,0.03324
0.9811,0.0256,0.043475
0.982675,0.025525,0.040575
0.987325,0.021625,0.03285
0.99065,0.0199,0.03705
0.98835,0.0205,0.043
0.979975,0.0236,0.034725
0.975475,0.026825,0.032
0.98145,0.0269,0.03595
0.9871,0.024075,0.04075
0.988075,0.021875,0.038025
0.986475,0.02175,0.037075
0.9862,0.022725,0.0396
0.989575,0.023475,0.030425
0.981875,0.026875,0.0294
0.9756,0.0261,0.0346
0.98085,0.023575,0.044525
0.990175,0.020275,0.04135
0.989725,0.020525,0.0444
0.98615,0.0193,0.037375
0.97895,0.024975,0.0408
0.9786,0.026325,0.036325
0.9831,0.0263,0.034375
0.9897,0.024,0.034925
0.9885,0.024275,0.036475
0.984125,0.02425,0.039275
0.982525,0.024125,0.03945
0.9834,0.023825,0.03835
0.981175,0.023725,0.040475
0.9828,0.024075,0.043125
0.9841333,0.0257333,0.0400333
0.987175,0.02325,0.0375
0.98788,0.02136,0.0372
0.98415,0.022275,0.0452
0.981325,0.02255,0.042875
0.9828,0.0237,0.0432
0.985725,0.023575,0.043925
0.98504,0.02172,0.0418
0.9836333,0.0196667,0.0354667
0.9838,0.02235,0.0394
0.986025,0.024075,0.04175
0.985575,0.0256,0.0406
0.982225,0.0234,0.040625
0.982125,0.022,0.0432
0.98405,0.021575,0.040925
0.986575,0.021625,0.040625
0.987875,0.02165,0.0397
0.98365,0.02235,0.03525
0.980325,0.025025,0.039075
0.98235,0.02475,0.045825
0.982,0.0228,0.034075
0.985725,0.021275,0.032475
0.990125,0.02125,0.044025
0.9883,0.02365,0.032125
0.985375,0.021825,0.025725
0.98015,0.026775,0.035775
0.97835,0.028175,0.04565
0.9833,0.024025,0.03395
0.9857,0.02105,0.0298
0.98885,0.020875,0.03325
0.98335,0.0259,0.0401
0.982175,0.028425,0.02715
0.98615,0.027625,0.028225
0.9818,0.028675,0.042375
0.97975,0.0239,0.040925
0.981275,0.021975,0.03085
0.9902,0.0212,0.022275
0.992775,0.02295,0.02795
0.987125,0.024275,0.0408
0.984425,0.0256,0.035475
0.983525,0.022775,0.026425
0.98235,0.02185,0.02385
0.98095,0.022625,0.036325
0.985175,0.02275,0.03585
0.99,0.021375,0.02705
0.989,0.021825,0.0327
0.98215,0.02285,0.03845
0.97865,0.022475,0.038825
0.979975,0.02105,0.0381
0.987325,0.021025,0.032975
0.993425,0.018775,0.025925
0.9847,0.02205,0.02765
0.979125,0.0253,0.028375
0.981575,0.0243,0.025275
0.9916,0.01935,0.0329
0.9903,0.019425,0.035
0.982425,0.021275,0.026525
0.9795,0.0228,0.026075
0.982425,0.022425,0.032275
0.98645,0.0187,0.033
0.9831667,0.0198333,0.031
0.9838,0.0219,0.029
0.9829143,0.0231571,0.0299571
0.984975,0.020575,0.032925
0.984075,0.020275,0.029725
0.982,0.020525,0.024875
0.9857,0.0210333,0.0241333
0.98696,0.02374,0.02204
0.985975,0.0237,0.031275
0.9827,0.0217,0.0367
0.9821667,0.0216,0.0252333
0.9867,0.019,0.0164333
0.98714,0.0223,0.02212
0.97788,0.02556,0.0333
0.98,0.0236333,0.0283
0.98752,0.02134,0.02196
0.9883,0.023,0.0248
0.984725,0.0233,0.025825
0.9817,0.02036,0.02772
0.9802333,0.0208667,0.032
0.98285,0.023575,0.027825
0.985775,0.024625,0.02155
0.989025,0.0218,0.0235
0.988,0.01895,0.0282
0.98475,0.018275,0.03165
0.978625,0.022725,0.0295
0.979875,0.0225,0.02155
0.988075,0.0199,0.0259
0.9878,0.0207,0.03835
0.98275,0.02095,0.033825
0.9828,0.020475,0.021875
0.984925,0.01905,0.031475
0.98945,0.01855,0.03655
0.9856,0.019175,0.02515
0.979375,0.02265,0.02845
0.98155,0.0232,0.032475
0.983025,0.02255,0.0326
0.98445,0.0202,0.034825
0.983775,0.01905,0.03925
0.984075,0.02065,0.0345
0.987025,0.020525,0.028675
0.98575,0.020775,0.033975
0.981575,0.02265,0.037625
0.978325,0.023475,0.0364
0.985475,0.0204,0.03445
0.98995,0.019875,0.0397
0.99025,0.021025,0.0326
0.988575,0.024575,0.0285
0.983025,0.0265,0.031225
0.978575,0.02805,0.037125
0.98245,0.023275,0.041625
0.986275,0.0221,0.032425
0.986475,0.02195,0.032675
0.9852,0.0237,0.0475
0.98438,0.02478,0.05114
0.982575,0.025225,0.03065
0.9861,0.023275,0.02325
0.986075,0.0237,0.036825
0.9826667,0.0250333,0.0438667
0.9815,0.0246,0.039325
0.983,0.02036,0.03138
0.9884333,0.0196333,0.0390667
0.98824,0.0227,0.04364
0.984625,0.026075,0.0425
0.981675,0.02625,0.038975
0.98145,0.0264,0.0433
0.9812,0.0251,0.0407
0.98454,0.02304,0.03746
0.987775,0.02115,0.0372
0.988225,0.02115,0.043975
0.986975,0.022375,0.0436
0.9818333,0.0260667,0.0371667
0.97858,0.02894,0.03896
0.979325,0.029975,0.048325
0.9835,0.0269333,0.0428667
0.99254,0.02336,0.0327
0.9913667,0.0249333,0.038
0.98804,0.02446,0.04392
0.9832333,0.0256,0.0468
0.979,0.02402,0.04308
0.9779333,0.0259333,0.0405333
0.9859,0.02505,0.044675
0.988225,0.0242,0.043225
0.981875,0.02495,0.037075
0.98205,0.02585,0.03895
0.989,0.025425,0.041475
0.98775,0.031875,0.041725
0.997025,0.025,0.04005
0.985675,0.0267,0.04535
0.983275,0.0278,0.03835
0.992275,0.018525,0.043775
0.972825,0.031625,0.060575
0.97685,0.0288,0.05585
1.001975,0.02775,0.06665
0.992825,0.0314,0.044225
0.984075,0.0141,0.04205
0.975575,0.0316,0.0734
0.990375,0.02365,0.065225
0.967525,0.0256,0.0515
0.977425,0.029075,0.0931
0.984125,0.0212,0.112325
0.999175,0.01215,0.0861
0.982675,0.01725,0.0688
0.9757,0.0239,0.083875
0.9633,0.026025,0.101975
0.9616,0.029275,0.099275
0.9683,0.027975,0.110825
0.972175,0.0341,0.103475
0.98015,0.0343,0.095025
0.978375,0.03765,0.108575
0.9824,0.017775,0.1005
0.982175,0.019975,0.11295
0.9801,0.02655,0.119125
0.9752,0.0288,0.114375
0.981725,0.030825,0.118125
0.98455,0.0254,0.098325
0.98395,0.02975,0.1055
0.9835,0.030975,0.09565
0.986025,0.025925,0.0832
0.984675,0.02485,0.088225
0.9876,0.0272,0.094875
0.98615,0.0239,0.094275
0.98165,0.0267,0.11715
0.9741167,0.0249667,0.1180833
0.977475,0.018525,0.108375
0.9836,0.01465,0.015925
0.980875,0.03025,0.1365
0.98625,0.027925,0.1308
0.989675,0.02335,0.10875
0.98495,0.0223,0.056325
0.99025,0.01875,0.070925
