accx,accy,accz
0.97822,0.0473,0.048
0.977425,0.0484,0.057275
1.0036,0.0488333,0.0777
1.0096,0.05406,0.08342
0.981275,0.060725,0.063275
0.9513,0.059975,0.0841
0.961775,0.058175,0.085575
0.9733,0.0555,0.0845333
0.978275,0.05745,0.100175
0.96428,0.05254,0.09594
0.973575,0.054325,0.111725
0.973575,0.048575,0.09665
0.9909333,0.0508333,0.1122333
1.00032,0.0518,0.11594
1.00135,0.0544,0.113825
0.99335,0.056525,0.11375
0.9866667,0.0567333,0.1221667
0.979525,0.0602,0.1127
0.981625,0.060825,0.09955
0.987625,0.05605,0.1171
0.9763,0.068975,0.130325
0.963975,0.06875,0.139
0.97125,0.072775,0.1654
0.972225,0.0732,0.15705
0.971025,0.077275,0.163375
0.955725,0.077225,0.177025
0.93685,0.075175,0.173675
0.9375,0.073725,0.17655
0.9536,0.06585,0.168775
0.95025,0.0585,0.180175
0.975375,0.057375,0.211225
0.9828,0.06015,0.1867
0.979525,0.057,0.2055
0.9665,0.0711667,0.185
0.952475,0.071275,0.196175
0.9618,0.06178,0.16798
0.9474,0.0672,0.17725
0.9611,0.066475,0.171775
0.9676667,0.0674667,0.1796333
0.966475,0.069475,0.16635
0.95886,0.06976,0.17696
0.9518,0.0657,0.181125
0.9446333,0.0645333,0.2036333
0.950825,0.070225,0.2232
0.9502,0.08202,0.11544
0.9758,0.059575,0.108325
0.970675,0.038025,0.08865
0.9543333,0.0255333,0.0552667
0.981575,0.02355,0.0709
0.98184,0.03738,0.08564
0.96465,0.04845,0.0941
1.0091,0.05635,0.04
0.9980667,0.0698333,-0.0206667
0.97988,0.06232,-0.01046
1.019025,0.031625,0.0323
1.012025,0.0378,0.098675
1.0213,0.0380667,0.1645333
1.0385,0.03664,0.09146
1.0459,0.0296667,0.0307667
1.04334,0.03784,0.06828
1.0117,0.04135,0.06415
0.982825,0.047175,0.033425
0.973625,0.073925,0.05815
1.019575,0.058675,0.08765
1.0042,0.0270667,-0.0897667
0.92868,0.02482,0.01998
0.93515,0.02255,-0.010425
0.9394667,0.0609667,-0.0246
0.9578,0.057375,0.0076
0.971075,0.03085,0.0684
1.0018,0.01785,-0.0166
0.98645,0.05175,0.005025
1.050525,0.109275,0.077075
1.0876,0.06195,0.06835
0.988825,0.0859,-0.011475
0.993625,0.091925,-0.068925
0.961825,0.0889,0.091025
0.9424,0.0532,0.1644
0.9448,0.0224,0.074825
0.942275,0.0018,0.037875
0.932275,0.0159,0.11715
1.000525,0.02555,0.14175
0.964775,0.0539,0.01665
0.9515,0.036775,-0.061025
0.983175,0.05415,-0.007925
1.03265,0.060925,0.024225
1.004475,0.084725,0.000575
0.9905,0.087375,-0.010525
0.95785,0.0773,0.03565
0.98255,0.090975,0.01715
0.955775,0.091925,0.0849
0.968125,0.067775,0.0921
0.944225,0.098375,0.089
0.9809,0.093225,0.06585
1.001475,0.04335,0.0557
0.9768,0.13925,0.039325
1.038775,0.048675,0.109
1.00565,0.083425,0.10305
0.98615,0.083325,0.01225
0.9841,0.02145,-0.025875
0.9446,0.0311,0.008775
0.926525,0.098975,0.0603
0.945875,0.11795,0.108075
0.9685,0.101025,0.064
0.9895,0.076125,0.0224
0.99745,0.076575,0.02245
0.993725,0.066025,0.036625
0.985875,0.055425,0.045075
0.98145,0.04285,0.0381
0.979475,0.027675,0.03035
0.9822,0.022475,0.020675
0.9994,0.0248,0.029675
0.9828,0.0484,0.038875
0.973325,0.0503,0.04935
0.965325,0.047675,0.034
0.966425,0.0386,-0.0048
0.971525,0.046575,0.016975
0.96605,0.062925,0.039025
0.9647,0.07885,0.0422
0.9820167,0.0598667,0.0353833
0.98125,0.05115,0.033725
1.00095,0.03545,0.02045
1.007975,0.0332,0.0224
0.9921333,0.0451333,0.0098667
0.996725,0.038675,0.0155
0.99396,0.0537,0.02276
1.001,0.0547,0.0144333
0.99286,0.06474,0.00684
0.9662667,0.0751667,0.0048333
0.964175,0.077675,-0.003925
0.97138,0.0852,0.00574
0.9820333,0.0817333,0.0016667
0.979125,0.0688,0.000225
0.970275,0.065575,0.005175
0.97245,0.0607,0.0067
0.9793,0.053925,-0.004925
0.990925,0.049575,-0.00175
0.9967,0.05345,0.0101
0.99165,0.058525,0.0043
0.986325,0.048775,-0.01415
0.995375,0.048275,-0.015975
0.99685,0.05645,0.002
0.982425,0.069725,0.0149
0.977825,0.06685,0.01055
0.970925,0.0594,0.009675
0.969775,0.056525,0.00095
0.981125,0.060925,0.010925
0.984425,0.0602,0.023675
0.980525,0.0528,0.016225
0.983275,0.04425,0.012375
0.984725,0.036525,0.00995
0.985725,0.04395,0.018375
0.98395,0.048825,0.019275
0.9877,0.04835,0.019275
0.9864,0.0523,0.0249
0.9851,0.0557,0.022475
0.979,0.0549333,0.0194
0.98226,0.05458,0.01516
0.98285,0.05335,0.01415
0.97795,0.05695,0.0113
0.97375,0.061025,0.01275
0.974925,0.06875,0.0072
0.984925,0.07065,0.014275
0.98405,0.0727,0.020075
0.9804,0.069775,0.028075
0.981825,0.070175,0.03045
0.985475,0.057075,0.0153
0.98285,0.055475,0.0136
0.981375,0.050925,0.01105
0.978325,0.0534,0.015725
0.981575,0.0616,0.0272
0.9859333,0.0543,0.0201333
0.97692,0.05704,0.00476
0.9806333,0.0566333,-0.0035333
0.987775,0.059675,0.012925
0.97954,0.07146,0.02146
0.975575,0.074675,0.02565
0.978925,0.071425,0.02705
0.9858,0.058125,0.012175
0.99,0.05505,-0.000575
0.987,0.0602,0.007175
0.98395,0.059825,0.004975
0.9760667,0.0675,0.0140333
0.9743333,0.0703667,0.0217667
0.97576,0.06502,0.01236
0.9847,0.062275,0.00895
0.990075,0.06215,0.00725
0.99016,0.06078,0.00532
0.980275,0.067475,0.01285
0.9777,0.0751333,0.0216333
0.97498,0.06958,0.01944
0.9776,0.0629333,0.0137333
0.978925,0.06545,0.015975
0.98295,0.06355,0.0137
0.975925,0.0633,0.00875
0.976925,0.063075,0.011475
0.98575,0.065125,0.010975
0.985525,0.06745,0.010825
0.984075,0.0793,0.032175
0.984425,0.0741,0.021725
0.9815,0.070025,0.014575
0.97875,0.0707,0.021475
0.984625,0.0657,0.02465
0.984575,0.0625,0.02535
0.989225,0.06035,0.018
0.989775,0.063225,0.017075
0.98315,0.06265,0.020925
0.976625,0.065075,0.0205
0.97815,0.069475,0.02065
0.9779,0.0718,0.0232
0.9812,0.0707,0.026125
0.983525,0.075775,0.02785
0.9807,0.076,0.02425
0.9801,0.06685,0.0172
0.9856,0.069,0.02
0.984525,0.073125,0.027075
0.9807,0.076775,0.028425
0.9806,0.073325,0.0208
0.979675,0.0765,0.023275
0.982475,0.07595,0.018975
0.983825,0.073925,0.015425
0.981225,0.0797,0.0255
0.9746,0.07825,0.022
0.977375,0.0763,0.019
0.981775,0.0744,0.0299
0.980625,0.07155,0.024225
0.978525,0.074725,0.027925
0.979725,0.07865,0.028025
0.983125,0.07585,0.0274
0.986525,0.0696,0.02975
0.982375,0.06875,0.028325
0.979725,0.072425,0.03505
0.9763,0.0774667,0.035
0.9763,0.0733,0.03375
0.97718,0.07232,0.03176
0.979275,0.069175,0.027875
0.9860667,0.0665333,0.0260333
0.9886,0.07155,0.027375
0.98468,0.08162,0.033
0.975925,0.09075,0.033325
0.9781,0.0919333,0.0337
0.97815,0.088275,0.0273
0.975925,0.095575,0.027975
0.978025,0.1012,0.033375
0.97935,0.094575,0.026525
0.98348,0.08828,0.02784
0.9827333,0.0815,0.0281667
0.98672,0.07558,0.03
0.9783333,0.0802,0.0303667
0.9715,0.085375,0.03585
0.972225,0.085125,0.04025
0.975525,0.0855,0.040375
0.990425,0.092525,0.0472
0.997225,0.09785,0.037125
0.98695,0.086275,0.02115
0.982475,0.07825,0.0131
0.98,0.07675,0.011825
0.976075,0.082375,0.024125
0.973075,0.08885,0.029725
0.977225,0.091925,0.039975
0.97675,0.092525,0.038975
0.98045,0.083475,0.02825
0.980025,0.075825,0.034675
0.9851,0.0684,0.0467
0.99085,0.0693,0.0436
0.985675,0.0663,0.035
0.9733,0.08695,0.045025
0.97155,0.09415,0.039025
0.97785,0.0899,0.03405
0.984025,0.080825,0.031075
0.9807,0.076575,0.038
0.9741,0.076375,0.032125
0.9743,0.078525,0.036625
0.979175,0.081175,0.03515
0.984625,0.07755,0.0317
0.982125,0.07505,0.035775
0.976675,0.07345,0.035925
0.97455,0.083,0.040475
0.973725,0.078025,0.0389
0.98405,0.0707,0.0337
0.99525,0.072525,0.038775
0.9937,0.073925,0.040775
0.986275,0.0806,0.047525
0.9921,0.0808333,0.0361333
1.00012,0.0832,0.0277
0.99105,0.077675,0.025625
0.97735,0.07405,0.028
0.967575,0.07215,0.017375
0.965425,0.084675,0.0301
0.960125,0.089575,0.037325
0.9636,0.077775,0.020825
0.973525,0.07985,0.0301
0.977925,0.0864,0.035275
0.97875,0.082475,0.034575
0.9817,0.0795,0.02695
0.9860667,0.0767,0.022
0.9837667,0.0699,0.027
0.9746,0.06744,0.01722
0.981525,0.07315,0.007325
0.9905,0.0736,0.0084
0.9989,0.0728667,0.0092333
0.9901667,0.0708833,0.0058833
0.9851333,0.0719,0.0156667
0.9784667,0.0757667,0.0210667
0.9785,0.0718,0.0069
0.9991167,0.068,0.0068833
1.0098,0.070625,0.012
0.996175,0.070825,0.00825
0.979925,0.074475,0.016275
0.972825,0.0756,0.0342
0.9738,0.07205,0.0242
0.98395,0.0737,0.02075
0.998475,0.076425,0.0274
1.01195,0.0831,0.024475
1.008775,0.084075,0.0081
0.982525,0.081425,0.0103
0.944875,0.0608,0.009075
0.923825,0.051225,0.007175
0.932875,0.054025,0.02515
0.962575,0.053,0.02775
0.965025,0.05695,0.032475
0.96575,0.058675,0.0141
0.98535,0.0605,0.0302
1.0005,0.0646,0.049225
0.9977,0.060425,0.043175
0.98345,0.050525,0.0224
0.97595,0.050025,0.022825
0.98445,0.05415,0.030225
0.987125,0.060175,0.03435
0.981375,0.066775,0.042
0.9732,0.061975,0.024725
0.98415,0.060675,0.021975
0.9897,0.062575,0.035975
0.97905,0.0605,0.03205
0.98115,0.0527,0.015875
0.98115,0.053475,0.0248
0.980275,0.053475,0.022075
0.9828,0.058825,0.01835
0.98375,0.06045,0.019475
0.99,0.064275,0.024825
0.9876,0.0681,0.0303
0.9841714,0.0720429,0.0199286
0.97615,0.078175,0.0169
0.9671,0.07595,0.018125
0.970675,0.068275,0.006325
0.9762,0.0647,-0.0002
0.9818167,0.0737167,0.0069833
0.9939,0.081625,0.004975
0.985975,0.0878,0.04955
0.962525,0.1004,0.033525
0.958,0.0723,-0.0029
0.9633571,0.0785571,-0.0348143
0.982375,0.06465,-0.044425
1.003675,0.079975,-0.01445
1.0064,0.08595,0.00285
0.99615,0.07975,0.0132
0.9934,0.0795,0.0133625
0.982425,0.071925,0.01615
0.984375,0.077775,0.02305
0.985725,0.0828,0.0167
0.9808667,0.0901333,0.0174
0.98065,0.099,0.02105
0.98388,0.09164,0.00426
0.971475,0.07725,0.0015
0.971225,0.087875,0.0031
0.9769857,0.0905429,0.0081571
0.983925,0.086825,0.007175
0.98815,0.08115,0.000525
0.9818333,0.0809,0.0064667
0.9847667,0.08695,0.0194333
0.9923667,0.087,0.0235
0.98695,0.08495,0.020925
0.978875,0.0842,0.029325
0.977,0.083425,0.031325
0.97185,0.076575,0.020875
0.976725,0.07945,0.018525
0.981525,0.0798,0.0208
0.97815,0.081875,0.013775
0.9828,0.085925,0.01885
0.984175,0.088925,0.02245
0.983575,0.086,0.0177
0.989625,0.086775,0.017375
0.9823,0.07235,-0.005225
0.962575,0.084325,0.0076
0.9839,0.08665,-0.0129
0.99435,0.0786,-0.0062
0.98865,0.0943,0.018925
0.976975,0.09015,0.026675
0.974725,0.080475,0.0256
0.9704,0.0815,0.029475
0.968025,0.09045,0.040175
0.961525,0.08855,0.019425
0.972325,0.0809,0.014875
0.9768,0.0833,0.019725
0.968725,0.086,0.026
0.978125,0.08,0.01305
1.003125,0.0773,-0.01445
1.00765,0.081225,0.0172
0.997375,0.090525,0.032525
0.984925,0.092875,0.03285
0.975275,0.089,0.026375
0.965125,0.088575,0.031025
0.958675,0.07685,0.016975
0.96765,0.071875,0.0158
0.97125,0.07725,0.020925
0.96995,0.08005,0.024725
0.9793,0.08145,0.0124
0.9945667,0.0859,0.0108
1.00198,0.09006,0.0169
0.999375,0.090075,0.01935
0.983475,0.08775,0.021875
0.97295,0.09055,0.024825
0.9735,0.0877,0.0318333
0.97085,0.0858,0.0282
0.96745,0.079975,0.024525
0.973025,0.0748,0.01525
0.9765,0.07444,0.0124
0.981025,0.072525,0.000825
0.982175,0.07355,0.0113
0.979375,0.0709,0.010275
0.977225,0.074625,0.007975
0.982725,0.075,0.009375
0.98805,0.079625,0.020225
0.995525,0.074975,0.01385
0.989775,0.076025,0.0124
0.9855,0.0774333,0.0060333
0.98078,0.07728,0.01302
0.9764,0.0804333,0.0266
0.972025,0.074475,0.0197
0.976325,0.0677,0.01145
0.980475,0.06735,0.016425
0.983625,0.06965,0.0148
0.984725,0.071875,0.014775
0.987625,0.071625,0.016575
0.987925,0.069575,0.016225
0.984425,0.072225,0.013225
0.97875,0.07405,0.016975
0.97525,0.07425,0.015325
0.9755,0.075475,0.0164
0.9759,0.07405,0.01055
0.97815,0.077075,0.025525
0.986025,0.07165,0.017975
0.98325,0.07125,0.015775
0.982225,0.0715,0.024125
0.978325,0.0695,0.013225
0.98115,0.06765,0.01895
0.981025,0.069775,0.021525
0.979625,0.07205,0.022475
0.979125,0.071425,0.0236
0.982175,0.07205,0.027525
0.988275,0.07535,0.026175
0.991475,0.075275,0.02355
0.991225,0.07045,0.020375
0.990675,0.068225,0.017925
0.990675,0.069225,0.016425
0.980775,0.0674,0.0076
0.968,0.0674,0.0051
0.955525,0.06925,0.005975
0.962675,0.07155,0.009575
0.9660333,0.0798,0.0227667
0.97372,0.07586,0.02646
0.98805,0.07225,0.0256
0.99765,0.063425,0.02125
0.997,0.0667,0.0296
0.99852,0.06522,0.0262
0.9921,0.066475,0.028775
0.98395,0.0666,0.037575
0.971225,0.064425,0.036175
0.9683,0.06305,0.030275
0.972825,0.06195,0.025725
0.974675,0.060225,0.0234
0.9742667,0.0608,0.0242333
0.97508,0.06236,0.02232
0.98335,0.065025,0.026925
0.98735,0.059925,0.021125
0.989025,0.0619,0.022875
0.98865,0.06545,0.028025
0.9849667,0.0648,0.0293667
0.984675,0.0647,0.030225
0.981825,0.062025,0.0187
0.97866,0.0664,0.01994
0.977625,0.065375,0.024725
0.978575,0.068325,0.0218
0.985,0.07395,0.0265
0.9875667,0.0706667,0.0265667
0.98486,0.06588,0.0213
0.98335,0.063725,0.026225
0.9815333,0.0622333,0.0276333
0.9779333,0.0630667,0.0305667
0.98218,0.06256,0.0321
0.982725,0.0561,0.028125
0.987675,0.05095,0.02425
0.991875,0.056925,0.02035
0.994275,0.057675,0.017375
0.983275,0.061525,0.02675
0.98065,0.064325,0.0297
0.975225,0.069525,0.0334
0.9769,0.07185,0.025275
0.979225,0.0714,0.02185
0.980225,0.071025,0.0288
0.9793,0.0659333,0.0257667
0.97896,0.06114,0.01392
0.981825,0.0619,0.02135
0.98035,0.0642,0.0232
0.983525,0.067325,0.0205
0.984675,0.06765,0.02485
0.98645,0.06355,0.022575
0.9862,0.061925,0.0237
0.989075,0.061975,0.028125
0.99,0.06135,0.026
0.985475,0.061275,0.02605
0.983,0.05725,0.02565
0.975275,0.052675,0.027725
0.97925,0.048375,0.021075
0.988025,0.049725,0.027425
0.98415,0.058125,0.03665
0.98095,0.057975,0.03405
0.980425,0.063975,0.037125
0.979,0.06605,0.04065
0.9776,0.06405,0.03095
0.9757,0.068125,0.029175
0.96995,0.070025,0.025475
0.974725,0.07115,0.0255
0.9853,0.068775,0.018225
0.9895,0.0702,0.0241
0.9851,0.07105,0.027775
0.98725,0.0705,0.02515
0.9889667,0.0707333,0.0300333
0.9836,0.067275,0.032775
0.9795,0.0614,0.02235
0.98062,0.05474,0.01702
0.9881333,0.0552667,0.0222
0.99046,0.05788,0.025
0.9759,0.0616667,0.0210667
0.97504,0.0668,0.02202
0.9768667,0.0713,0.0218667
0.976325,0.07185,0.0221
0.98058,0.07658,0.02458
0.9776667,0.0781667,0.0267667
0.9717,0.07705,0.0228
0.975825,0.07345,0.02465
0.987825,0.06665,0.018625
0.99255,0.065075,0.021475
0.988075,0.062325,0.021475
0.979425,0.062275,0.02195
0.978075,0.068025,0.016375
0.986175,0.06855,0.008875
0.987125,0.066425,0.0134
0.982125,0.0679,0.01525
0.978525,0.06545,0.017775
0.985175,0.06385,0.016025
0.9815,0.064825,0.026375
0.9837,0.0613,0.01545
0.98665,0.054375,0.009225
0.9759,0.058425,0.022025
0.9737,0.06135,0.024375
0.977225,0.063775,0.02575
0.98005,0.06325,0.023725
0.984375,0.0643,0.02175
0.98785,0.06225,0.0189
0.988825,0.06435,0.022225
0.984675,0.0635,0.0254
0.9773,0.066075,0.018125
0.9818,0.066775,0.018725
0.9801333,0.0652667,0.0136333
0.9857,0.06496,0.01338
0.9752,0.06405,0.0133
0.976325,0.06325,0.018675
0.9823,0.063175,0.01665
0.9767,0.0617667,0.0230667
0.97994,0.06138,0.0192
0.983825,0.065575,0.02605
0.985575,0.0666,0.029125
0.986825,0.06505,0.02685
0.9833,0.063025,0.016975
0.981475,0.061675,0.017325
0.9765,0.06045,0.018925
0.9705,0.062525,0.0212
0.9732,0.06435,0.02215
0.9851,0.064,0.02755
0.9909,0.0634333,0.0226833
0.988225,0.061275,0.02105
0.983625,0.06145,0.0222
0.9803667,0.063,0.0213667
0.983275,0.060675,0.018275
0.98452,0.06554,0.0198
0.98405,0.0657,0.026675
0.979675,0.06825,0.029475
0.9799667,0.0643667,0.0251333
0.97955,0.066275,0.020325
0.9753,0.0651,0.02072
0.9778667,0.0651333,0.0227667
0.98864,0.0673,0.02624
0.9846,0.0695333,0.0089
0.984925,0.070425,0.019025
0.98482,0.06956,0.01938
0.984075,0.059525,0.004925
0.979425,0.065875,0.027225
0.9773,0.0628333,0.0308333
0.9762333,0.0596667,0.0271
0.97695,0.0645,0.0378833
0.977375,0.067575,0.037375
0.9830333,0.0688,0.0104667
0.9951,0.06495,0.00955
0.9913,0.0591667,0.0195
0.98142,0.056,0.02588
0.9733,0.0525,0.02685
0.969,0.057675,0.029
0.98455,0.071375,0.024375
0.99435,0.06385,0.0373
0.98535,0.0544,0.022225
0.979375,0.048525,0.018875
0.977,0.057625,0.022575
0.976375,0.0559,0.028375
0.97795,0.060375,0.021975
0.98665,0.060975,0.022575
0.985525,0.064575,0.023025
0.97875,0.06325,0.037875
0.982125,0.048075,0.030475
0.991875,0.04625,0.02595
0.99135,0.04735,0.028575
0.98615,0.0528,0.02355
0.984275,0.057325,0.03005
0.985425,0.0613,0.0328
0.980275,0.062275,0.01985
0.98265,0.06375,0.01985
0.9836,0.0614,0.0147667
0.987625,0.066925,0.013775
0.982475,0.067975,0.023125
0.9926667,0.0674,0.0167667
0.98422,0.06378,0.023
0.9719,0.065625,0.041125
0.96025,0.048075,0.036575
0.962925,0.0423,0.022575
0.985425,0.041325,0.026875
0.982125,0.041525,-0.001475
0.97915,0.06025,0.01525
0.9927,0.0716,0.0554
0.986775,0.060075,0.048075
0.9753333,0.0582667,0.0282333
0.9578,0.0599667,0.0005333
0.9925667,0.0472167,0.0090333
0.9922,0.048075,0.059775
0.9966667,0.0488333,0.0456667
1.010775,0.041775,0.034875
0.98898,0.04398,0.03794
0.948525,0.03765,0.043325
0.961325,0.039225,0.020925
0.9831333,0.0416333,0.0314333
0.9785667,0.0575333,0.0453333
1.0008167,0.0587333,0.0348667
1.0172,0.040525,0.0364
0.984175,0.0397,0.0246
0.9673667,0.0569333,0.0400667
0.97888,0.0641,0.03456
0.9762333,0.0430667,0.0133
0.96864,0.04174,0.01786
0.9782,0.044825,0.03155
0.9811333,0.0412333,0.0434667
0.98972,0.0429,0.0303
0.9966,0.0439333,0.0266
0.98828,0.04526,0.03492
0.9824,0.0489667,0.0367667
0.97325,0.05155,0.048975
0.9787,0.0484,0.041875
0.979925,0.04675,0.03205
0.982125,0.0446,0.0342
0.986575,0.044225,0.034975
0.9911,0.0391,0.024975
0.986225,0.038725,0.029575
0.980575,0.038425,0.0252
0.980425,0.040975,0.0281
0.98395,0.045375,0.03525
0.987125,0.047825,0.040375
0.9853,0.046575,0.040325
0.978925,0.047475,0.04265
0.98725,0.039175,0.0244
0.98895,0.03685,0.016125
0.994175,0.038825,0.0299
0.9903,0.043375,0.035625
0.981425,0.044725,0.038225
0.97815,0.04475,0.03255
0.97385,0.052175,0.0372
0.9748,0.051,0.040475
0.973625,0.049725,0.029775
0.977475,0.04505,0.022325
0.985425,0.0435,0.016125
0.987625,0.043475,0.0243
0.98595,0.04455,0.031175
0.987375,0.0408,0.01995
0.984925,0.043375,0.01935
0.983325,0.047,0.0263
0.981125,0.049625,0.02605
0.9822333,0.0505333,0.0236667
0.98244,0.05224,0.02516
0.9809,0.048025,0.0211
0.981625,0.047125,0.0247
0.99165,0.04025,0.010275
0.9919667,0.0461333,0.0231667
0.98852,0.0501,0.02522
0.97845,0.054875,0.02455
0.98035,0.05255,0.02595
0.983525,0.047,0.0205
0.9825,0.0473,0.0315
0.98354,0.04168,0.02176
0.9815,0.042475,0.024675
0.984925,0.04185,0.0224
0.980075,0.042875,0.019975
0.9840667,0.0451333,0.0315667
0.9877333,0.0430333,0.0210667
0.9849667,0.0428,0.0224
0.9829,0.044475,0.030225
0.984175,0.038625,0.011875
0.9864333,0.0414667,0.0155667
0.9844667,0.0460667,0.0275
0.9865167,0.0446167,0.0267167
0.98345,0.0443,0.025025
0.9782667,0.0433,0.0194333
0.980525,0.045875,0.021925
0.9821667,0.0440333,0.0149667
0.9837,0.04438,0.0194
0.9853,0.0466,0.0242
0.984125,0.047425,0.024575
0.978825,0.047325,0.024675
0.9821667,0.0449333,0.0145333
0.9811667,0.0477667,0.0186667
0.97975,0.0501667,0.02215
0.984575,0.04995,0.011825
0.985475,0.05275,0.0194
0.9823333,0.0529,0.0198333
0.9808,0.052425,0.019275
0.98178,0.04676,0.01782
0.9837,0.0463,0.01905
0.9842667,0.0471667,0.0207333
0.98138,0.04646,0.02458
0.97655,0.0415,0.018025
0.9857,0.040275,0.010425
0.986,0.0448,0.01055
0.98145,0.0506,0.013775
0.98065,0.0523,0.010175
0.984975,0.05235,0.013025
0.981125,0.05475,0.0197
0.982975,0.0542,0.011225
0.9852667,0.0541,0.0122333
0.98626,0.0559,0.01182
0.98645,0.0553,0.012825
0.978775,0.054575,0.0159
0.9763,0.0489,0.01255
0.9733,0.0484667,0.0124
0.97442,0.04888,0.0172
0.9807,0.04485,0.016375
0.98175,0.042525,0.01795
0.9804,0.0439,0.016825
0.9838667,0.0486,0.024
0.98716,0.05046,0.02074
0.996225,0.0492,0.0092
0.9911,0.051325,0.01495
0.986825,0.0533,0.01415
0.9824333,0.0541333,0.0116
0.978,0.05454,0.00742
0.97765,0.05435,0.01275
0.980175,0.05045,0.007525
0.9781,0.051325,0.013275
0.9760667,0.0521667,0.019
0.97826,0.05068,0.01882
0.9847,0.048075,0.0119
0.996,0.043575,0.006275
0.9972333,0.0408,-0.0005667
0.9911,0.050725,0.007125
0.991025,0.0506,0.007
0.98058,0.0467,0.00796
0.9743,0.046725,0.00645
0.9732333,0.0472667,0.0087
0.97155,0.047875,0.015925
0.9783,0.0453,0.01242
0.9897,0.0442333,0.0149
0.98545,0.047375,0.01935
0.97885,0.04895,0.019025
0.984025,0.0476,0.009525
0.9881,0.0491667,0.0217667
0.99,0.0455667,0.0140333
0.9843833,0.0455667,0.0132
0.9814,0.05145,0.013675
0.980125,0.046875,0.007975
0.9785667,0.0455667,0.0030667
0.98272,0.04862,0.00634
0.9863,0.045825,0.002075
0.985175,0.04625,0.01005
0.9809,0.045075,0.003925
0.9777667,0.048,0.0099333
0.98252,0.04666,0.00976
0.986075,0.045875,0.014375
0.98945,0.043325,0.0136
0.989325,0.04405,0.014475
0.9825,0.04595,0.01415
0.982475,0.044075,0.004675
0.98425,0.046675,0.01235
0.98415,0.0457,0.0148
0.9845,0.04455,0.00775
0.981825,0.043875,0.0073
0.980825,0.043275,0.009225
0.98035,0.043375,0.00925
0.98225,0.0436,0.010575
0.98125,0.042275,0.01255
0.980375,0.0451,0.015625
0.9823,0.0451667,0.0167667
0.98998,0.04206,0.00762
0.98805,0.043775,0.010075
0.9822,0.043875,0.009075
0.97925,0.044175,0.013125
0.979175,0.043625,0.00175
0.97655,0.041925,0.00915
0.97285,0.043625,0.007425
0.9895,0.04035,0.011075
0.99275,0.03685,0.0013
0.98665,0.040025,0.0103
0.98045,0.047675,0.01355
0.9705333,0.0522667,0.004
0.97636,0.04838,-0.00866
0.9844,0.04455,-0.01095
0.989075,0.04605,-0.009125
0.9924833,0.0437833,-0.0116167
0.990475,0.04215,-0.017975
0.9791667,0.0489,0.0001
0.982975,0.048275,0.00135
0.98922,0.03778,-0.01922
0.9891,0.036275,-0.01275
0.9846333,0.036,-0.0086667
0.97742,0.03346,-0.00708
0.97105,0.0415,0.0055
0.9734667,0.0497,0.0104
0.9844667,0.0510167,0.0057667
0.9893,0.04445,-0.001175
0.99025,0.039875,-0.0064
0.9902667,0.0357,-0.0059667
0.9839667,0.0389667,-0.0094
0.9745286,0.0456,0.0020143
0.9723333,0.0458667,0.0044333
0.9796,0.041775,0.000575
0.9837,0.0414667,-0.0022333
0.9861667,0.0401,-0.0020167
0.9860667,0.0417333,0.0022333
0.98385,0.041275,0.0015
0.98305,0.04365,0.0018
0.9779,0.043375,0.000625
0.982175,0.04255,-0.00615
0.981575,0.04425,-0.00295
0.9859,0.0454,0.00535
0.986,0.044725,0.004075
0.980475,0.04365,-0.0029
0.979975,0.04095,-0.0024
0.976625,0.0397,0.005375
0.9834,0.03875,0.008275
0.993625,0.0356,-0.00385
0.993275,0.0402,-0.00455
0.98555,0.04785,-0.001775
0.976675,0.05045,0.0012
0.97815,0.050175,-0.002225
0.981875,0.045025,-0.002225
0.984375,0.043375,0.0005
0.98455,0.041375,-0.004475
0.9834,0.042325,-0.0053
0.9839,0.041075,-0.003875
0.986375,0.0404,-0.005475
0.985675,0.039975,-0.009175
0.98265,0.04385,0.002175
0.9851,0.042775,0.003025
0.983975,0.041875,-0.000575
0.981875,0.04045,-0.003575
0.9847,0.0388,-0.004225
0.98745,0.038,-0.00045
0.98425,0.041375,0.002075
0.9831,0.0408667,0.0036
0.98592,0.0405,0.00492
0.9813667,0.0422,0.0039333
0.98116,0.0418,-0.0051
0.985425,0.0402,-0.0082
0.98495,0.0443,-0.004375
0.98165,0.047,0.0021
0.9772,0.049,0.0043667
0.97994,0.0452,0.00184
0.984625,0.041225,-0.00345
0.9851,0.0436,0.004875
0.986825,0.04045,0.002975
0.9899,0.041,-0.0016
0.98812,0.04276,0.00186
0.978675,0.04315,0.00335
0.9773667,0.0435,0.0018667
0.9782,0.04275,-0.0058
0.977175,0.0432,-0.001725
0.97748,0.04104,0.00146
0.9843,0.0399,-0.002675
0.9888,0.042175,-0.000325
0.9876667,0.0447333,0.0004667
0.984925,0.04655,0.0001
0.98205,0.0482,-0.001875
0.97896,0.04892,0.00068
0.9773667,0.0450667,0.0011
0.982475,0.043475,-0.0015
0.984825,0.0443,0.000825
0.983775,0.04355,-0.007125
0.980175,0.044475,-0.00405
0.98285,0.042925,-0.006075
0.98585,0.038125,-0.005
0.97925,0.037925,0.00145
0.9770333,0.0455667,0.0074
0.97954,0.04524,0.00318
0.98505,0.0419,0.002475
0.981275,0.04305,0.002575
0.9796,0.042875,0.006075
0.983325,0.041225,0.004575
0.979175,0.044975,0.001175
0.9928,0.03665,-0.003625
0.987725,0.0432,0.00015
0.982125,0.0408,-0.00325
0.979025,0.046025,0.001675
0.98015,0.044175,0.00315
0.982925,0.042775,0.007175
0.9855,0.039025,0.00775
0.987,0.037625,0.004225
0.9911,0.034925,0.007975
0.9909,0.03475,0.00785
0.99345,0.0376,0.00455
0.9845,0.042025,0.01305
0.982475,0.04015,0.006325
1.0093,0.033,-0.0051
1.035275,0.039725,0.00115
0.998675,0.048325,0.013975
0.972175,0.04455,0.037675
0.971675,0.039675,0.055725
0.9639,0.034525,0.030025
1.002975,0.04215,0.00725
0.982475,0.03935,0.02515
0.911775,0.0477,0.01715
0.950225,0.0685,0.051825
1.00535,0.08805,0.081275
1.000875,0.070025,0.0918
0.9468,0.055775,0.0325
0.9471,0.010575,-0.003575
1.003425,0.0278,0.142325
1.069075,0.02505,0.1732
1.044675,0.038175,0.128325
1.020175,0.0478,0.152
0.984575,0.082625,0.2116
0.950675,0.098875,0.234525
0.941475,0.080975,0.14655
0.894425,0.08345,-0.018925
0.8542667,0.0764333,0.1201333
0.92146,0.06456,0.32904
1.00785,0.065875,0.1787
0.997825,0.0484,0.1312
0.9997333,0.0607333,0.1337333
0.96976,0.09204,0.18986
1.007,0.06765,0.233125
1.0109333,0.0903,0.2113
0.95944,0.0625,0.21998
0.9016667,0.0573,0.1421
0.9072,0.0401,0.099075
0.898375,0.033125,0.155625
0.907675,0.04315,0.19475
0.945275,0.0402,0.203375
0.972425,0.0254,0.2337
0.981325,0.032925,0.1968
1.00125,0.03605,0.164425
0.98865,0.0413,0.2249
0.972225,0.04565,0.257875
0.967475,0.040625,0.267125
0.9696333,0.0313,0.2855333
1.0035,0.00878,0.22962
1.003025,-0.00725,0.163675
0.9609333,0.0013333,0.1849
0.92924,0.02116,0.22106
0.94885,0.0346,0.224975
0.967775,0.0391,0.190375
0.978575,0.03505,0.202675
0.9827333,0.0289333,0.2060333
0.98262,0.0239,0.10028
0.99035,0.0258,0.23155
0.9902,0.028925,0.2785
0.961825,0.0303,0.249
0.954725,0.02005,0.2182
0.9796,0.005675,0.151275
0.9995,0.0104,0.0914
