accx,accy,accz
0.99945,0.1175167,0.2027833
0.9783,0.1318333,0.2546333
0.960675,0.123575,0.2342
0.937375,0.106625,0.195075
0.939275,0.0968,0.196975
0.9512,0.10425,0.19165
0.963125,0.112425,0.195925
0.973675,0.1059,0.194
0.9631,0.1086,0.1960667
0.96076,0.09616,0.20126
0.951575,0.082025,0.19175
0.95415,0.067925,0.187675
0.942775,0.050475,0.18515
0.9365,0.04265,0.192225
0.9562,0.0341333,0.1635333
0.99078,0.02588,0.17202
1.0076,0.024,0.1907
0.99695,0.03555,0.19515
0.990425,0.051325,0.1896
0.979275,0.076075,0.186175
0.975875,0.08005,0.1739
0.97595,0.084825,0.115275
0.978775,0.079875,0.113025
1.001,0.08205,0.1069
1.01015,0.10495,0.093775
1.008175,0.131275,0.099725
1.000625,0.1647,0.109025
1.01,0.209325,0.135775
0.9812,0.23735,0.138875
0.890325,0.24285,0.207125
0.9038,0.2543,0.15195
0.947175,0.258075,0.215175
0.983875,0.242675,0.2817
0.9792667,0.2074667,0.3453333
0.9367,0.19872,0.34288
0.954825,0.195625,0.29225
0.968075,0.21835,0.3118
0.976075,0.222075,0.2603
0.94,0.252425,0.290325
0.948425,0.227825,0.3492
0.894775,0.199975,0.352625
0.8911667,0.1808333,0.3408333
0.8917,0.17866,0.34468
0.8916,0.210575,0.387075
0.86675,0.233125,0.3865
0.82725,0.2545,0.362975
0.8138333,0.2474,0.3421
0.83042,0.22286,0.33646
0.844625,0.20855,0.380575
0.84725,0.213275,0.3773
0.83135,0.239475,0.402875
0.78285,0.264225,0.454425
0.767825,0.2622,0.485975
0.770375,0.24045,0.479225
0.796825,0.208625,0.515
0.851675,0.18845,0.51525
0.9002667,0.1738333,0.4670667
0.949125,0.210675,0.367525
1.062225,0.299725,0.29115
1.11375,0.3479,0.3098
1.151225,0.423425,0.6682
1.293525,0.47105,0.666975
1.2354,0.3383,0.38645
1.173925,0.219875,0.165325
1.077925,0.131825,0.1702
0.997025,0.111,0.228025
0.90965,0.0948,0.215375
0.866025,0.09825,0.2885
0.86595,0.100825,0.30405
0.93745,0.1026,0.2896
0.969475,0.113325,0.2762
0.98815,0.104775,0.252525
1.014825,0.094475,0.198875
1.002375,0.084075,0.16125
0.9412667,0.0704333,0.1534667
0.87286,0.05132,0.07586
0.8192,0.0245,0.047025
0.79095,0.030425,0.0166
0.7664,0.046575,0.022225
0.759925,0.0808,0.0733
0.826725,0.108575,0.1097
0.86815,0.1265,0.117475
0.891775,0.1351,0.1226
0.907675,0.123825,0.08475
0.936,0.108175,0.077525
0.942175,0.108175,0.089925
1.0106,0.09655,0.18845
1.069575,0.088125,0.295475
1.16885,0.076875,0.26585
1.19145,0.0851,0.14435
1.1693,0.1246,-0.072925
1.2009,0.1131,-0.328775
1.2588,0.1012,-0.191175
1.294625,0.11805,-0.26565
1.296625,0.1439,-0.242825
1.276125,0.245225,-0.1912
1.2136667,0.3144333,-0.0372
1.02158,0.38508,0.06572
0.8796,0.33915,0.07625
0.85545,0.257825,0.108725
0.899725,0.205575,0.139825
0.9149333,0.1777,0.0931667
0.90424,0.15334,0.03832
0.876875,0.14655,-0.02025
0.80625,0.154,0.027925
0.7457,0.14525,0.0513
0.7014,0.1356667,0.1007333
0.647,0.13454,0.15172
0.6132,0.11865,0.150825
0.623775,0.0968,0.18165
0.677775,0.124675,0.2578
0.727725,0.145925,0.31745
0.77325,0.1702,0.28405
0.836925,0.197025,0.271275
0.888075,0.214875,0.30595
0.916525,0.229825,0.316675
0.9453333,0.2364,0.3081
0.970925,0.250875,0.3041
0.98692,0.25176,0.31398
1.00695,0.248475,0.3378
1.127275,0.237125,0.18385
1.2306667,0.2501667,0.2654667
1.385,0.2522,0.120725
1.3277,0.301925,-0.02715
1.29805,0.38755,-0.04
1.33995,0.43345,0.053675
1.154575,0.257,-0.060775
1.023125,0.1241,-0.23495
0.8986,0.0267,-0.10245
0.8799,0.027075,0.05315
0.979125,0.075725,0.14045
0.971,0.0924,0.153525
0.92215,0.097075,0.081425
0.9177,0.088775,0.061025
0.929875,0.072175,0.073075
0.885075,0.074925,0.06455
0.803925,0.08475,0.039325
0.748275,0.08825,0.023325
0.74995,0.074025,-0.01305
0.76665,0.062725,-0.0016
0.76255,0.07315,0.011375
0.67485,0.1012,0.025275
0.679125,0.1069,-0.020075
0.753475,0.107175,0.042425
0.857975,0.088925,0.098975
0.921875,0.07565,0.1033
0.977625,0.06725,-0.030525
1.073175,0.052625,-0.04755
1.193325,0.038625,0.0463
1.272025,0.045025,0.12775
1.2951333,0.0635,0.0944667
1.23478,0.10754,0.01472
1.212975,0.154875,-0.20695
1.240175,0.17845,-0.201825
1.260175,0.2574,-0.155275
1.30605,0.350625,-0.12715
1.235575,0.3933,-0.175675
1.0968,0.362,-0.165625
0.992875,0.28525,-0.13025
0.890675,0.231525,-0.0128
0.874325,0.203675,0.0573
0.906825,0.20245,0.115275
0.95105,0.21165,0.18775
0.985825,0.21695,0.190825
0.987625,0.2128,0.108275
0.98105,0.2027,0.076975
0.9231,0.1839,0.1209333
0.838075,0.1865,0.15025
0.7444,0.162975,0.1339
0.67988,0.12786,0.09956
0.63805,0.09845,0.1009
0.6168333,0.0595,0.1193333
0.61645,0.06295,0.1287
0.621925,0.076025,0.16955
0.6639,0.1015,0.254125
0.72605,0.13485,0.326975
0.79355,0.176475,0.372025
0.85665,0.20875,0.36955
0.876775,0.226875,0.374775
0.916175,0.22415,0.374325
0.976,0.208175,0.397125
1.06345,0.202525,0.4763
1.1996,0.203525,0.35875
1.3886,0.307625,0.32535
1.332,0.28875,0.2545
1.2423833,0.3483333,0.0291667
1.22455,0.42485,0.3029
1.271475,0.39175,0.403925
1.19355,0.269625,0.077575
1.0034,0.189625,0.016225
0.89285,0.14545,0.1784
0.83765,0.158925,0.29215
0.878575,0.138575,0.217725
0.846375,0.1166,0.2113
0.833425,0.0578,0.169
0.8475,0.0281,0.172475
0.8739,-0.004875,0.14725
0.853125,-0.013375,0.142925
0.83945,-0.009375,0.14265
0.802475,0.038625,0.1173
0.78515,0.08905,0.081425
0.786775,0.1265,0.095775
0.8005,0.1355,0.074425
0.800625,0.1235,0.0746
0.816375,0.113475,0.066625
0.82985,0.083,0.0708
0.8624,0.06,0.0829
0.87942,0.0413,0.14752
0.878225,0.0241,0.154025
0.948725,0.01535,0.218425
1.038725,0.027325,0.1806
1.100875,0.05395,0.16195
1.1419667,0.0620333,0.1701667
1.17155,0.0866,0.188325
1.27548,0.1052,0.18976
1.25735,0.186675,-0.0782
1.2871,0.21635,-0.016275
1.4186,0.2355333,-0.0616333
1.35582,0.30426,-0.16398
1.2945,0.32975,-0.170025
1.162725,0.3096,-0.121825
1.05205,0.291425,0.0449
0.878025,0.265775,0.196425
0.822975,0.275475,0.169975
0.8489667,0.2952333,0.1863667
0.92094,0.24834,0.15104
0.9520333,0.2419,0.1169667
0.9758,0.2384,0.07775
0.959,0.2349286,0.062
0.887825,0.223375,0.0871
0.828275,0.221225,0.123
0.7523,0.21825,0.129075
0.718525,0.207275,0.11525
0.6970667,0.2024333,0.1311667
0.6894,0.1911,0.1402
0.65338,0.1869,0.16482
0.643575,0.19405,0.2082
0.6414333,0.2077,0.2408
0.669625,0.21545,0.231075
0.72975,0.237525,0.2168
0.802875,0.2748,0.16
0.82455,0.3267,0.170025
0.80935,0.34625,0.268575
0.82945,0.321,0.317575
0.824675,0.30115,0.31285
0.87185,0.23895,0.293275
0.9451,0.183025,0.43055
1.0681,0.150525,0.498275
1.176025,0.18845,0.42175
1.255925,0.320925,0.309025
1.34175,0.450175,0.578675
1.3513,0.49045,0.27925
1.200725,0.471425,0.249025
1.23285,0.3526,0.0089
1.176825,0.2918,-0.1706
1.070875,0.245,-0.1433
0.979175,0.192525,-0.0219
0.8681,0.1491,0.099225
0.78355,0.14515,0.0621
0.818575,0.2004,0.016025
0.877325,0.2231,0.053075
0.87495,0.233575,0.0698
0.8552,0.203975,0.06585
0.848275,0.146925,0.09855
0.818325,0.086,0.117775
0.77705,0.05175,0.039175
0.75665,0.045775,-0.0684
0.738375,0.059275,-0.026975
0.7102,0.094125,0.02075
0.7202,0.1334,0.06195
0.789925,0.13615,0.1157
0.84855,0.1518,0.0803
0.9135,0.173175,0.040675
1.012925,0.144775,0.10575
1.1476,0.1213,0.091275
1.217925,0.12265,0.088025
1.1845,0.1469333,-0.0047333
1.1727,0.171575,-0.06345
1.18872,0.1997,-0.05468
1.1883,0.247075,-0.11035
1.21125,0.237875,-0.063225
1.283875,0.168525,-0.0973
1.2892,0.175725,-0.19705
1.2385,0.26815,-0.268025
1.1591,0.3295,-0.106525
1.071175,0.3661,-0.068925
0.9677,0.352475,0.01265
0.873075,0.298825,0.133675
0.844275,0.2589,0.1262
0.8778,0.2233333,0.0502
0.88334,0.20452,0.02154
0.860625,0.208925,-0.001425
0.8089333,0.1936333,0.0497333
0.793675,0.172725,0.0958
0.748075,0.133,0.083975
0.668925,0.110725,0.02165
0.61075,0.109325,0.02065
0.594025,0.12075,0.076275
0.625975,0.14075,0.108
0.70925,0.1607,0.165825
0.75955,0.199225,0.28955
0.81425,0.212225,0.3142
0.858475,0.220675,0.272225
0.89265,0.22805,0.279275
0.9223,0.24615,0.280525
0.9705,0.26565,0.240675
0.951625,0.2627,0.278
0.93,0.2773,0.38185
0.933225,0.275,0.404575
0.9315,0.245475,0.30545
0.973025,0.161875,0.255625
1.195375,0.219625,0.00445
1.387975,0.296925,0.3759
1.305325,0.436125,0.371225
1.1575,0.509475,0.4119
1.20645,0.496775,0.151075
1.1746,0.32545,-0.03015
1.058175,0.191875,-0.21655
0.916575,0.118525,-0.12335
0.819925,0.126025,0.0895
0.856775,0.179525,0.22205
0.925225,0.157475,0.261575
0.97375,0.1227,0.1538
0.9967,0.1229,0.04075
1.0379833,0.1170667,-0.0084833
1.092775,0.05255,0.009375
1.051325,0.018525,0.02405
0.916875,0.0409,0.00865
0.788175,0.050525,0.00405
0.7124,0.0798,-0.009725
0.696625,0.098025,0.01985
0.696225,0.09935,0.06875
0.655625,0.089025,0.152475
0.70735,0.071825,0.173775
0.79465,0.033875,0.087175
0.85175,0.0208,-0.0213
0.93805,0.0157,-0.0617
1.042625,0.022125,-0.076225
1.113,0.0671833,0.0014833
1.19105,0.10315,0.075925
1.214375,0.097325,-0.0086
1.271625,0.107,-0.0524
1.285475,0.109625,-0.13845
1.30525,0.094825,-0.2284
1.2875,0.0715,-0.1632
1.203375,0.1207,-0.2728
1.177375,0.2819,-0.311875
1.1458,0.318375,-0.235
1.014,0.391825,-0.2083
0.8938,0.4142,-0.1748
0.89625,0.380275,-0.0864
0.99395,0.323975,0.058025
1.02795,0.272375,0.123525
1.011,0.228425,0.01565
0.9512667,0.2129333,-0.1263667
0.85392,0.17158,-0.19718
0.779975,0.090875,-0.0942
0.7052333,0.0963333,0.0484333
0.642875,0.095325,0.1126
0.6253,0.128875,0.165325
0.653,0.13475,0.141825
0.6402,0.160975,0.1323
0.6668,0.2016,0.136575
0.776,0.19955,0.177325
0.87145,0.2125,0.2287
0.915775,0.23995,0.2705
0.915725,0.27305,0.260775
0.862225,0.298175,0.232125
0.775125,0.30245,0.2026
0.772425,0.279125,0.190325
0.793625,0.273775,0.27075
0.835675,0.24915,0.4102
0.911725,0.24155,0.460475
1.00795,0.20715,0.230275
1.13715,0.300975,0.4355
1.331375,0.41775,0.27345
1.2128,0.4576,0.169075
1.086425,0.452075,0.157575
1.2057,0.38095,-0.15635
1.2309,0.364475,-0.1544
1.0903,0.374225,-0.142675
0.99845,0.309525,-0.1778
0.9537333,0.2744333,-0.2000667
0.89008,0.28882,-0.07038
0.83815,0.301225,-0.01
0.858125,0.239425,0.03065
0.873,0.192375,0.06585
0.8476,0.1562,0.1099
0.80035,0.12685,0.1201
0.7716,0.093425,0.10495
0.8018667,0.0449,0.0557667
0.8355,0.024325,0.0121
0.83146,0.03278,0.00294
0.797875,0.092775,0.00675
0.8016,0.134,0.02045
0.8219,0.1582,0.068775
0.8422,0.1705667,0.0797
0.87708,0.16208,0.03508
0.9292,0.1336,-0.0144667
0.96825,0.1136,0.001125
0.9647,0.098025,0.037225
0.945575,0.0892,0.092725
0.9273667,0.0914,0.1170333
0.9264167,0.0947667,0.1202833
0.8995,0.0683,0.1381
0.89884,0.04968,0.09554
0.8738,-0.0124333,-0.0100667
0.867425,-0.059275,-0.00185
0.94465,-0.106375,-0.015475
1.050825,-0.09075,0.01305
1.218525,0.049425,0.012875
1.391375,0.170125,-0.19065
1.503675,0.27175,-0.138175
1.440125,0.4153,-0.064325
1.157125,0.531725,0.08725
0.9081,0.576275,0.2867
0.79515,0.540575,0.299475
0.78345,0.433275,0.21985
0.87615,0.2464,-0.041175
0.9716,0.1456,-0.247525
0.95235,0.0517,-0.280825
0.873825,0.029875,-0.1622
0.790975,0.08585,0.030475
0.762325,0.1483,0.155675
0.795175,0.18625,0.203625
0.864175,0.22325,0.182575
0.901025,0.231625,0.13795
0.92755,0.214,0.07435
0.945875,0.1799,0.078625
0.94925,0.1582,0.13
0.921175,0.146975,0.155775
0.911075,0.131425,0.1435
0.93435,0.117825,0.169775
0.93825,0.115425,0.287825
0.8908,0.0959,0.33875
0.8138333,0.0871333,0.3098
0.8013,0.09488,0.21772
0.84225,0.11655,0.15425
0.959825,0.141575,0.179
1.134325,0.209875,0.271525
1.254875,0.284475,0.35275
1.3501,0.309875,0.402325
1.38865,0.308475,0.1228
1.3558,0.31465,0.000825
1.2994,0.337525,-0.0688
1.08015,0.3102,-0.057825
0.9081,0.194925,-0.242875
0.796025,0.0885,-0.301675
0.60265,0.0592,-0.2367
0.5593,0.096425,-0.018575
0.80305,0.14645,0.052425
0.9914,0.1637,0.0767
1.04016,0.18224,0.04106
1.0279667,0.2116,0.0003
1.0544,0.18048,-0.0653
1.062325,0.131825,-0.0741
1.003925,0.10415,-0.032225
0.93445,0.0903,0.017
0.8633,0.078125,0.049225
0.839975,0.060275,0.089675
0.8485,0.038625,0.1635
0.8822,0.0161667,0.2163667
0.90928,-0.00768,0.1792
0.924725,-0.01315,0.127275
0.91825,-0.008675,0.1068
0.928475,0.013075,0.122425
0.9468333,0.0396,0.1441333
0.9264,0.07954,0.16656
0.91885,0.0559,0.16355
0.9442,0.0311333,0.0928333
0.9501,0.016575,-0.06065
0.938,-0.011025,-0.04825
0.97008,-0.05584,-0.15372
1.0440333,-0.0096,-0.0936667
1.170475,0.093675,0.02735
1.43738,0.16734,-0.0681
1.4897,0.2592667,-0.0382667
1.326275,0.390975,-0.014325
1.120725,0.465675,0.013525
0.985725,0.4668,0.2357
0.920825,0.3843,0.185325
0.9016,0.23595,0.013175
0.940925,0.155725,-0.026625
0.977975,0.14705,-0.05755
0.96345,0.121375,-0.072425
0.9181,0.13535,-0.0117
0.86835,0.172125,0.10905
0.8038,0.207575,0.15805
0.76005,0.24645,0.16045
0.760925,0.281475,0.20335
0.800275,0.284125,0.1926
0.85575,0.274075,0.201375
0.915325,0.254325,0.2449
0.98065,0.239925,0.259475
1.0035,0.221525,0.2744
0.986875,0.192925,0.2548
0.9232,0.160975,0.224425
0.87445,0.118175,0.194175
0.8782,0.10035,0.3009
0.904275,0.125525,0.490375
0.890325,0.13345,0.27915
0.9539,0.1830333,0.0861333
1.20122,0.29508,0.09352
1.399875,0.48025,0.3087
1.242125,0.57685,0.3653
1.309275,0.48625,0.0524
1.2362333,0.3042333,-0.2612
1.13412,0.20086,-0.28864
0.93385,0.144075,-0.0852
0.89485,0.127875,-0.013525
0.885875,0.16735,0.0914
0.8692333,0.2172667,0.1546667
0.865525,0.2115,0.090025
0.886125,0.1717,0.009125
0.9196,0.13986,0.00734
0.944225,0.12055,0.041775
0.936925,0.101175,0.024675
0.871875,0.0939,-0.00045
0.82165,0.066975,-0.012825
0.802575,0.0499,0.0043
0.805925,0.0273,-0.001075
0.8067667,0.0485667,0.0375333
0.786,0.11222,0.05694
0.909475,0.153175,0.000375
0.9875667,0.1642667,0.0273333
1.04385,0.1494,0.01495
1.047325,0.126225,0.033525
1.08968,0.07752,0.0416
1.1954667,0.0544333,-0.0386667
1.293675,0.05295,-0.04175
1.3168,0.06465,-0.0403
1.25045,0.145275,-0.062975
1.241375,0.1662,-0.17305
1.25204,0.13522,-0.18458
1.1554,0.2119667,-0.3253
1.062125,0.293975,-0.337825
0.97695,0.36445,-0.183475
0.95955,0.380475,-0.07655
0.93395,0.4329,0.005275
0.95615,0.42525,-0.04305
0.9619,0.359075,-0.1287
0.993525,0.276975,-0.12275
0.98805,0.2391,-0.1249
0.9455,0.2051,-0.1221
0.87735,0.195125,-0.103875
0.802225,0.189725,-0.03425
0.752775,0.158825,0.0267
0.7042,0.113475,0.056275
0.6506,0.097675,0.066375
0.6163,0.110425,0.10165
0.6171,0.13315,0.14415
0.673775,0.145325,0.181725
0.720325,0.168675,0.143725
0.777825,0.2013,0.064025
0.8379,0.238625,0.129525
0.89985,0.30225,0.2375
1.001125,0.3265,0.2785
1.082775,0.320275,0.27675
1.1206,0.29985,0.313675
1.138175,0.27595,0.314675
1.2136,0.255,0.111375
1.2655667,0.3061333,0.1017333
1.34202,0.36268,-0.01214
1.23235,0.47,0.015125
1.144925,0.357675,-0.1259
1.05735,0.199525,-0.29575
0.947625,0.09675,-0.312825
0.842225,0.0358,-0.21175
0.842475,0.05745,-0.06505
0.885925,0.1285,0.093575
0.857225,0.165925,0.124625
0.8033333,0.1767333,0.0720667
0.7812,0.13386,0.05352
0.77025,0.0675,0.049425
0.78175,0.018025,0.014275
0.7818,0.0058,-0.020325
0.7842667,0.0155,-0.0006
0.8044,0.0274667,0.0195
0.8242167,0.0290333,0.0179667
0.79275,0.0413,0.032325
0.80355,0.05125,0.034625
0.8506667,0.0697333,0.0392333
0.9333,0.0681,0.0851
1.0409167,0.0766833,0.1066
1.0622,0.097175,-0.075325
1.0749,0.0940333,-0.1394667
1.089975,0.076925,-0.09615
1.1366,0.061975,-0.01255
1.146,0.06275,0.069025
1.14565,0.0608,0.083425
1.166375,0.094325,0.0467
1.144975,0.115275,-0.10625
1.1798,0.112575,-0.36695
1.18584,0.1422,-0.24968
1.2319,0.2318333,-0.3089333
1.287675,0.23545,-0.26875
1.2326,0.295225,-0.204175
1.135575,0.3367,-0.13895
1.039925,0.361025,-0.03265
0.98785,0.369025,0.004425
0.99765,0.3226,0.0149
0.9852,0.2485,-0.0343667
0.96266,0.18638,-0.07286
0.9391,0.12985,-0.092675
0.9187,0.102175,-0.0911
0.84695,0.123575,-0.0371
0.7785667,0.1503333,0.0073667
0.70095,0.1738,0.046975
0.60208,0.18234,0.05484
0.59565,0.178775,0.044325
0.630075,0.1787,0.11065
0.6781,0.1834333,0.2074667
0.71882,0.1933,0.24084
0.794275,0.209175,0.1751
0.8376,0.248175,0.05425
0.8794,0.270475,-0.0219
0.8962,0.2901,0.0347667
0.93234,0.33256,0.1564
1.0339,0.376,0.300625
1.10305,0.406425,0.389225
1.163825,0.40055,0.28975
1.1933,0.4073333,0.1301667
1.28234,0.4136,-0.00414
1.2474,0.448225,0.02575
1.091425,0.451425,0.089825
1.032825,0.3146,-0.2039
0.9772667,0.2308333,-0.3890333
0.899525,0.151575,-0.32105
0.88172,0.09378,-0.20372
0.949775,0.0421,-0.094925
0.99045,0.0739,0.015875
0.99,0.1120333,0.0572
0.95708,0.14742,0.0631
0.884575,0.15905,0.0476
0.8387667,0.1248333,0.0618667
0.786925,0.0755,0.011125
0.73805,0.034575,-0.03465
0.7437667,-0.0081333,-0.0869
0.76298,-0.00792,-0.09666
0.77288,0.0274,-0.00776
0.7940667,0.0807667,-0.0396667
0.828675,0.1194,-0.051125
0.87888,0.14004,-0.02628
0.9293667,0.151,-0.0251333
0.966475,0.130275,-0.049775
1.014425,0.102,-0.130025
1.059975,0.0883,-0.148975
1.105875,0.094275,-0.071475
1.174475,0.124225,0.043325
1.233475,0.122725,0.090525
1.253275,0.09215,-0.075525
1.26725,0.0644,-0.342675
1.299075,0.059925,-0.47695
1.254475,0.0968,-0.29335
1.23125,0.174025,-0.39025
1.193875,0.293325,-0.372375
1.067025,0.3784,-0.15475
0.935675,0.427575,0.0139
0.94075,0.3949,0.034075
0.92405,0.30885,-0.06145
0.940625,0.209325,-0.112825
0.944425,0.137375,-0.161075
0.92965,0.1024,-0.152475
0.85555,0.12545,-0.1181
0.79165,0.132825,-0.05325
0.714275,0.149725,0.0208
0.640325,0.1698,0.058825
0.588225,0.184325,0.052125
0.5722,0.187,0.047275
0.6151,0.198225,0.086175
0.7111,0.20735,0.16755
0.77505,0.199975,0.262375
0.82095,0.1884,0.3051
0.83875,0.2007,0.1544
0.850125,0.217025,-0.059175
0.854775,0.2967,-0.106725
0.8742333,0.3565667,-0.0734333
0.96816,0.40206,0.06628
1.0648,0.4541,0.3431
1.162675,0.4552,0.462775
1.17815,0.4299,0.380525
1.1569333,0.4036667,0.1964667
1.2347667,0.4100333,-0.0104
1.3083333,0.4365,0.0551833
1.2092,0.44585,0.25755
1.09585,0.330225,-0.0955
1.0046667,0.2376333,-0.3045333
0.97584,0.16044,-0.26744
0.917775,0.1331,-0.149225
0.8654,0.149775,0.02415
0.859775,0.1911,0.080875
0.8724333,0.2393,0.0321333
0.8780333,0.2422667,0.0524333
0.9256833,0.1905,0.0804833
0.9661,0.10755,0.0317
0.926025,0.062775,0.00365
0.8813,0.0418,-0.0645667
0.8394333,0.0448,-0.0976667
0.7527833,0.0755167,-0.0655
0.684525,0.128125,-0.008625
0.679,0.1549,-0.0108
0.7006,0.156,0.0100333
0.7301,0.1387,0.0664667
0.81828,0.12906,0.01668
0.9403,0.129475,0.011675
1.02064,0.12846,0.02834
1.0500667,0.1574333,-0.0501667
1.11226,0.1527,-0.0441
1.1707,0.1357667,0.0098
1.199725,0.11905,0.0827
1.195275,0.1097,0.0828
1.201325,0.129875,0.022425
1.22705,0.154075,-0.19
1.236825,0.172625,-0.326525
1.28255,0.1906,-0.145175
1.24665,0.1912,-0.142825
1.175325,0.1873,-0.3951
1.013225,0.230675,-0.27085
0.9799,0.267725,-0.1571
0.918625,0.311875,-0.03725
0.9165,0.31525,0.057625
0.8855333,0.3049333,-0.0345333
0.85768,0.24594,0.0325
0.86345,0.179225,0.146575
0.8725,0.156,0.04665
0.939825,0.137125,0.043175
0.9324667,0.1351,0.1400667
0.85188,0.15776,0.22988
0.780475,0.206025,0.294575
0.72075,0.223775,0.25335
0.662925,0.202925,0.2543
0.6385667,0.1733333,0.3161667
0.70274,0.15886,0.36822
0.7226,0.182275,0.416725
0.71655,0.21525,0.40345
0.726675,0.225725,0.40445
0.7486667,0.2227667,0.4389667
0.7769,0.2164,0.4369
0.79306,0.21174,0.4167
0.7936,0.20245,0.4235
0.7664,0.20785,0.457325
0.7722333,0.2104667,0.4347
0.7799667,0.1828333,0.5008
0.88625,0.1871833,0.5538
1.0525,0.26675,0.4839
1.104025,0.31275,0.4039
1.0859667,0.3455,0.3020667
1.1254,0.35546,0.34132
1.13335,0.32255,0.4402
1.192675,0.25765,0.343025
1.2767,0.204825,0.1454
1.2215667,0.1717,0.1794333
1.1485667,0.1865333,0.1606
0.9900833,0.1961,0.1571667
0.816025,0.1691,0.177975
0.7731667,0.1116333,0.1412333
0.774575,0.0641,0.212775
0.8320667,0.0422333,0.1687667
0.8923833,0.0646,0.1927167
0.9556667,0.0862333,0.1892
0.986275,0.09435,0.1542
0.95315,0.096825,0.1704
0.9033,0.0920333,0.1691667
0.8433,0.09516,0.1713
0.815075,0.090575,0.16775
0.822875,0.077375,0.166
0.844075,0.07115,0.1451
0.861,0.069875,0.158325
0.865825,0.073125,0.127975
0.86874,0.07636,0.12678
0.8887,0.076,0.1349
0.9225333,0.0713333,0.1474
0.96624,0.0763,0.1719
0.9881,0.08465,0.1592
0.981625,0.0807,0.16365
0.9567,0.090625,0.14535
0.954,0.0974,0.0842667
0.95334,0.046,0.02334
0.96415,0.024225,0.12285
0.987325,0.04125,0.2189
0.995675,0.08175,0.183125
1.03425,0.09685,0.104175
1.04475,0.114325,0.0799
1.0343333,0.1391,0.0764667
