accx,accy,accz
0.9587333,-0.0064333,0.2480667
0.95924,-0.00524,0.2547
0.961125,-0.0083,0.249725
0.961425,-0.009625,0.246575
0.963725,-0.01295,0.238775
0.9605,-0.0095,0.2413
0.95686,-0.00544,0.25198
0.9559,-0.003225,0.24895
0.95705,-0.002975,0.24695
0.956825,-0.004525,0.25415
0.9596,-0.0081,0.2593667
0.95892,-0.00998,0.25192
0.96,-0.009375,0.244225
0.9589,-0.0099,0.250325
0.955925,-0.00745,0.2474
0.955175,-0.0027,0.24185
0.962175,-0.0053,0.24175
0.96445,-0.009775,0.2432
0.96345,-0.01275,0.239675
0.95805,-0.008675,0.2444
0.95455,-0.00625,0.2465
0.95205,-0.00525,0.2475
0.956075,-0.007925,0.249725
0.96,-0.01155,0.24585
0.963025,-0.01235,0.238
0.95975,-0.008925,0.23245
0.9591333,-0.0043,0.2432333
0.9591,-0.009,0.24936
0.958775,-0.01165,0.2394
0.9627,-0.0112,0.24085
0.9634,-0.0095667,0.2469
0.95886,-0.01038,0.24138
0.956875,-0.00945,0.23765
0.959975,-0.012775,0.24075
0.966275,-0.0137,0.2433
0.9605,-0.0113667,0.2445667
0.9554,-0.0092,0.2407
0.958775,-0.010525,0.240475
0.9614667,-0.0120333,0.2371333
0.961025,-0.01105,0.237875
0.959925,-0.01115,0.24185
0.95732,-0.0079,0.24788
0.9605,-0.0084333,0.2529333
0.96822,-0.01376,0.24338
0.9643333,-0.0148,0.2366667
0.95555,-0.00855,0.24435
0.951875,-0.0058,0.251875
0.9581,-0.0099,0.2479
0.9586,-0.014225,0.248925
0.961775,-0.01415,0.2469
0.961625,-0.0105,0.242125
0.9581,-0.007625,0.24885
0.9611,-0.0092,0.248425
0.960125,-0.0113,0.23955
0.959825,-0.009675,0.245325
0.9614667,-0.0120333,0.2447333
0.96204,-0.01368,0.24482
0.9581,-0.0117,0.243775
0.956875,-0.009825,0.248875
0.957125,-0.010025,0.251675
0.958225,-0.011175,0.2537
0.956125,-0.010825,0.250225
0.953825,-0.011725,0.257925
0.95575,-0.012225,0.255275
0.961025,-0.0148,0.242075
0.967175,-0.01505,0.233875
0.961325,-0.0083,0.237525
0.956475,-0.0105,0.2479
0.953,-0.0075,0.25115
0.95835,-0.00805,0.24195
0.96465,-0.00465,0.2375
0.9672,-0.00905,0.255875
0.962075,-0.016925,0.2574
0.95315,-0.016725,0.25585
0.951425,-0.012225,0.2488
0.957875,-0.007825,0.242875
0.9619,-0.007375,0.24355
0.9595,-0.008975,0.256625
0.95635,-0.01035,0.254375
0.9579,-0.012175,0.2515
0.9578667,-0.0121667,0.2537333
0.959,-0.01226,0.2523
0.9628,-0.013425,0.2615
0.957325,-0.01365,0.258275
0.951875,-0.007875,0.250275
0.9511333,-0.0041333,0.2453333
0.95668,-0.00358,0.25204
0.962375,-0.009,0.252
0.96385,-0.01565,0.24525
0.956325,-0.011675,0.249975
0.9544,-0.0097667,0.2535333
0.95176,-0.00898,0.26456
0.95615,-0.01075,0.261475
0.960025,-0.013,0.248075
0.962375,-0.013325,0.24905
0.9582333,-0.0121667,0.2514
0.95694,-0.01332,0.25574
0.952975,-0.01215,0.255425
0.95295,-0.01055,0.2632
0.95625,-0.010325,0.264
0.9592,-0.0133667,0.2607
0.95758,-0.01036,0.2619
0.9537,-0.009625,0.2581
0.95515,-0.007675,0.2639
0.957,-0.0110667,0.2577333
0.95936,-0.01158,0.24352
0.9599667,-0.0086,0.2447333
0.95924,-0.00794,0.25472
0.954625,-0.00915,0.264075
0.9542667,-0.0124333,0.2593667
0.95425,-0.0124,0.257725
0.9558333,-0.0128333,0.2628
0.9582,-0.01046,0.25684
0.959925,-0.012075,0.2551
0.9584,-0.011275,0.26015
0.9575,-0.0131333,0.2487667
0.95392,-0.01018,0.25488
0.9535,-0.010125,0.266525
0.95445,-0.0105,0.269075
0.955275,-0.009625,0.264025
0.956275,-0.009875,0.258025
0.95645,-0.009225,0.249925
0.9597,-0.011875,0.2496
0.958975,-0.01155,0.25945
0.953175,-0.00995,0.267325
0.9505667,-0.0081333,0.2694667
0.95074,-0.00936,0.2599
0.954875,-0.009325,0.2535
0.9622,-0.009775,0.2568
0.963425,-0.01035,0.26335
0.9600333,-0.0109,0.2613333
0.954175,-0.010525,0.257675
0.95288,-0.00928,0.25252
0.954675,-0.008725,0.255475
0.956575,-0.009175,0.262275
0.9579667,-0.0122667,0.2617333
0.9584,-0.0145667,0.2604333
0.9553333,-0.0124167,0.2579333
0.955075,-0.00925,0.25895
0.954,-0.00635,0.256925
0.9548667,-0.0068,0.2555667
0.9566,-0.0093,0.26165
0.96062,-0.01214,0.254
0.96055,-0.011225,0.248125
0.958775,-0.00665,0.253
0.9571667,-0.0041333,0.257
0.9586,-0.0061667,0.2507667
0.9577,-0.0074333,0.2462333
0.956025,-0.008275,0.259625
0.957575,-0.00935,0.26555
0.957925,-0.011425,0.260725
0.95565,-0.012025,0.253575
0.95705,-0.012525,0.24655
0.96075,-0.011775,0.2521
0.9599333,-0.0121,0.2541
0.95796,-0.0105,0.25176
0.956675,-0.0112,0.249
0.956775,-0.01045,0.2504
0.959375,-0.007575,0.2581
0.9608,-0.007375,0.25585
0.95935,-0.00935,0.248875
0.95725,-0.0112,0.25
0.9535833,-0.0106333,0.2531833
0.960475,-0.010975,0.25205
0.966275,-0.012975,0.2469
0.9599333,-0.0078,0.2464333
0.957675,-0.003975,0.257425
0.95742,-0.00354,0.25954
0.9572667,-0.0077,0.2578333
0.968625,-0.0102,0.2636
0.9739333,-0.0065,0.2579
0.9635,-0.00362,0.24802
0.95195,-0.003775,0.257375
0.9551,-0.012175,0.247525
0.9552,-0.0155,0.23395
0.95525,-0.0157,0.22875
0.9626667,-0.0172667,0.2365333
0.95816,-0.0189,0.2423
0.9574,-0.0199,0.243125
0.96195,-0.0193,0.2389
0.9636,-0.0177667,0.2399333
0.95966,-0.01638,0.24554
0.955825,-0.008425,0.2422
0.9598,-0.00895,0.252125
0.957325,-0.010275,0.240575
0.9599333,-0.0145667,0.2331
0.958475,-0.01215,0.2394
0.95748,-0.00958,0.24124
0.9556,-0.00685,0.238
0.962575,-0.011675,0.2356
0.9645667,-0.0180667,0.2381333
0.9573,-0.01556,0.24404
0.960425,-0.0122,0.22845
0.960275,-0.0163,0.235
0.96385,-0.013675,0.23505
0.9595333,-0.0126,0.2575333
0.9567333,-0.0076333,0.2648333
0.9540167,-0.0109667,0.2463667
0.964525,-0.012175,0.23175
0.96855,-0.019925,0.2193
0.9711,-0.0243667,0.2094333
0.96916,-0.027,0.22222
0.96665,-0.020175,0.222725
0.96475,-0.0099,0.230525
0.970075,-0.003525,0.2294
0.9657667,0.001,0.2287333
0.9581333,0.0034,0.2296333
0.95205,0.0050833,0.2303667
0.95315,0.0011,0.228075
0.961475,7.5e-05,0.225375
0.9690333,-0.0026667,0.221
0.96582,-0.00706,0.22994
0.958325,-0.0058,0.245625
0.9547,-0.00985,0.248125
0.96065,-0.0168,0.236175
0.96115,-0.02005,0.220275
0.9542,-0.013075,0.224825
0.95755,-0.0077,0.216775
0.95885,-0.005675,0.2372
0.954425,-0.0044,0.2334
0.9518667,-0.0087,0.2154667
0.946,-0.01012,0.20238
0.9454,-0.0094,0.202125
0.9525,-0.007075,0.245725
0.9669,-0.00825,0.274475
0.9770667,-0.0083,0.2850333
0.976375,-0.005475,0.268625
0.98248,-0.0138,0.2399
0.984075,-0.014825,0.228925
0.9702,-0.0184667,0.2250667
0.96448,-0.03054,0.23478
0.9587667,-0.0345,0.2389
0.955375,-0.035325,0.227475
0.9644,-0.032275,0.23885
0.9711,-0.028175,0.24875
0.9675,-0.0280333,0.2427667
0.96068,-0.03068,0.25056
0.9562,-0.0396,0.242025
0.957,-0.039625,0.221175
0.96265,-0.0326,0.22095
0.96635,-0.022275,0.23835
0.96915,-0.0187,0.2389
0.967275,-0.016325,0.239625
0.9692,-0.0115,0.243475
0.97215,-0.004575,0.2476
0.9668667,-0.0018667,0.2519667
0.95674,-0.00236,0.24506
0.942825,-0.006475,0.226325
0.941625,-0.010825,0.230525
0.944225,-0.003175,0.238275
0.9553667,-0.0038333,0.2287333
0.95664,0.00062,0.2064
0.9504,-0.005775,0.214475
0.953925,-0.01965,0.259975
0.961225,-0.02855,0.2845
0.970125,-0.034225,0.288775
0.988575,-0.04015,0.283575
0.9772,-0.041875,0.265125
0.9529,-0.0337,0.2423667
0.93922,-0.02984,0.27062
0.946725,-0.027375,0.3008
0.9527,-0.0294,0.3034
0.9597167,-0.03435,0.2723833
0.946775,-0.042725,0.215575
0.9468,-0.047,0.226275
0.94985,-0.03995,0.2283
0.96125,-0.03575,0.22795
0.9594667,-0.0299,0.2334667
0.9668143,-0.0278857,0.2380429
0.9738,-0.0256667,0.2518667
0.96082,-0.0183,0.2436
0.95015,-0.01215,0.26085
0.9429,-0.0125333,0.2757333
0.9463,-0.017575,0.269075
0.9558,-0.0254,0.2751
0.948325,-0.029025,0.2766
0.94494,-0.03172,0.26644
0.959575,-0.036725,0.28315
0.9788,-0.039,0.2612
0.968825,-0.02565,0.249925
0.9498667,-0.0154,0.2523667
0.943525,-0.0182,0.271975
0.9496,-0.0262,0.279
0.964775,-0.0388,0.28015
0.9718,-0.043025,0.275575
0.95155,-0.0348,0.2735
0.933175,-0.018875,0.281675
0.9345,-0.005475,0.29155
0.9444,-0.001225,0.2978
0.9542,-0.004675,0.302625
0.956225,-0.012825,0.28955
0.94955,-0.014675,0.28205
0.946675,-0.01545,0.276275
0.939425,-0.01615,0.281925
0.94325,-0.021075,0.2958
0.9590333,-0.0303667,0.3009667
0.96362,-0.03486,0.28914
0.9602,-0.030325,0.28045
0.9507,-0.025225,0.2804
0.94845,-0.02535,0.277625
0.950025,-0.024925,0.27225
0.943675,-0.019375,0.2747
0.931825,-0.01795,0.276725
0.9273,-0.01655,0.3022
0.9453,-0.021475,0.307
0.96,-0.025,0.292
0.95816,-0.02358,0.29242
0.949975,-0.015975,0.297525
0.948175,-0.0148,0.29745
0.94675,-0.009125,0.281925
0.9468,-0.011425,0.27295
0.952,-0.023575,0.275275
0.955175,-0.03295,0.2784
0.954125,-0.035675,0.28345
0.95365,-0.027775,0.289875
0.9487667,-0.0202,0.2988
0.9445,-0.01564,0.30646
0.93765,-0.0135,0.296525
0.93535,-0.0176,0.310775
0.932125,-0.016175,0.31995
0.9396667,-0.0180667,0.3173333
0.9443,-0.0184,0.3151
0.94435,-0.018075,0.312375
0.943225,-0.017475,0.30785
0.942325,-0.01575,0.310525
0.94075,-0.018,0.3157
0.94345,-0.020875,0.3104
0.9455,-0.0256,0.3033
0.9456,-0.0271,0.3075333
0.94274,-0.02644,0.31622
0.938725,-0.020525,0.311325
0.93805,-0.017925,0.306775
0.940675,-0.016,0.3052
0.944475,-0.019075,0.305325
0.94265,-0.022,0.310075
0.9416,-0.022125,0.309625
0.9429,-0.022,0.305075
0.942975,-0.020125,0.305525
0.9432,-0.0192,0.30605
0.938475,-0.016425,0.308825
0.9404667,-0.0166667,0.3134667
0.94532,-0.02058,0.31614
0.948025,-0.0231,0.3043
0.9460333,-0.0242667,0.294
0.941,-0.02108,0.30364
0.9409333,-0.0178,0.3113667
0.94386,-0.02098,0.31332
0.9435333,-0.0239333,0.3077
0.94518,-0.02304,0.30332
0.9440667,-0.0176,0.3051667
0.944,-0.0204,0.310175
0.941225,-0.01955,0.3159
0.93935,-0.01935,0.307975
0.943925,-0.02315,0.307175
0.9497,-0.023475,0.30085
0.945075,-0.0196,0.295825
0.93745,-0.015525,0.311025
0.937425,-0.01685,0.323975
0.940375,-0.014725,0.3231
0.936475,-0.016725,0.30225
0.938475,-0.016275,0.30765
0.9521,-0.0211,0.3101
0.9463833,-0.0190833,0.3017667
0.938,-0.017,0.31725
0.94155,-0.01775,0.324225
0.937975,-0.021625,0.300075
0.9514,-0.02815,0.2831
0.9500833,-0.0210667,0.3103167
0.938325,-0.0189,0.3
0.94735,-0.02395,0.3076
0.92945,-0.021575,0.3073
0.9429,-0.0242,0.319125
0.94505,-0.022775,0.320675
0.934875,-0.019625,0.30535
0.9419,-0.0231,0.311875
0.945575,-0.0226,0.31455
0.9553,-0.0278,0.28635
0.9551,-0.02895,0.2821
0.9383333,-0.0188667,0.3164
0.9355,-0.018,0.29885
0.938475,-0.017225,0.317025
0.94075,-0.0213,0.30485
0.9498333,-0.0309667,0.3182333
0.939875,-0.024625,0.34935
0.933425,-0.0262,0.3227
0.9414,-0.026775,0.314425
0.9417,-0.023,0.3014
0.9452667,-0.0231667,0.2909333
0.9398571,-0.0209429,0.3160571
0.940475,-0.02495,0.338175
0.95015,-0.0294,0.30985
0.94295,-0.0283,0.3053
0.9416333,-0.0263833,0.3158333
0.9463,-0.0289,0.3051
0.942075,-0.019425,0.2966
0.9357,-0.0132667,0.2925333
0.9361,-0.013675,0.2994
0.936575,-0.01605,0.3112
0.94584,-0.02864,0.3126
0.942625,-0.0275,0.321025
0.938225,-0.0229,0.3116
0.940425,-0.018775,0.30275
0.940925,-0.018125,0.305
0.948675,-0.0229,0.3043
0.9486,-0.0217333,0.3028
0.943875,-0.020075,0.2978
0.938875,-0.01965,0.305675
0.945625,-0.02375,0.30465
0.94545,-0.0223,0.30385
0.94205,-0.022725,0.30425
0.944475,-0.022425,0.308
0.946725,-0.02315,0.293775
0.9415,-0.02115,0.297825
0.941225,-0.0204,0.305875
0.942225,-0.02095,0.303325
0.94155,-0.0201,0.306375
0.941225,-0.0201,0.3016
0.9457,-0.023875,0.3019
0.94935,-0.021925,0.305375
0.945075,-0.0199,0.304475
0.9456,-0.0198,0.3093
0.94035,-0.020225,0.295475
0.9463,-0.02485,0.2985
0.946125,-0.024425,0.30645
0.943925,-0.021925,0.308675
0.940275,-0.01685,0.300725
0.9367,-0.0156,0.30005
0.94335,-0.0210833,0.3054333
0.95155,-0.02825,0.3091
0.948125,-0.026,0.306975
0.94715,-0.024925,0.288125
0.94245,-0.0205,0.29125
0.9397,-0.01775,0.2974667
0.944175,-0.01775,0.30955
0.945275,-0.019175,0.305675
0.945275,-0.022175,0.304775
0.94615,-0.02475,0.3123
0.947225,-0.0252,0.311825
0.9417333,-0.0184167,0.2977167
0.9408,-0.01575,0.2975
0.942675,-0.022075,0.30735
0.94625,-0.02645,0.31325
0.9486,-0.0273333,0.3077333
0.95005,-0.025175,0.2972
0.9443,-0.018525,0.2947
0.9397,-0.0185,0.30055
0.942625,-0.019425,0.2934
0.9482,-0.02195,0.28305
0.9520333,-0.021,0.29575
0.943475,-0.019025,0.30625
0.940575,-0.017975,0.2961
0.9411,-0.0164,0.28515
0.947475,-0.017025,0.289275
0.94755,-0.0161833,0.3034667
0.940625,-0.01565,0.30315
0.94215,-0.0198,0.293575
0.9472,-0.02195,0.2951
0.94726,-0.0219,0.30304
0.9422,-0.01882,0.30064
0.946375,-0.022175,0.29045
0.9497333,-0.0224667,0.2826667
0.9506,-0.02324,0.2933
0.944525,-0.02045,0.2974
0.9428,-0.02105,0.3014
0.95064,-0.02482,0.3004
0.94882,-0.0248,0.28984
0.94685,-0.0234,0.28685
0.94786,-0.02216,0.30132
0.944225,-0.019625,0.3018
0.94295,-0.01705,0.295175
0.942225,-0.01565,0.287875
0.94405,-0.015225,0.300625
0.9482,-0.019575,0.309325
0.9482,-0.021825,0.3084
0.94435,-0.0191,0.29475
0.94415,-0.018475,0.28145
0.946525,-0.0196,0.2878
0.9452,-0.01825,0.293975
0.94845,-0.0219,0.302725
0.950675,-0.025175,0.295975
0.9487,-0.0262,0.294525
0.946925,-0.02395,0.294375
0.944475,-0.01935,0.295175
0.942525,-0.018275,0.293925
0.944,-0.019175,0.302375
0.948875,-0.0225,0.29125
0.948425,-0.021425,0.29085
0.9457,-0.019,0.3008
0.945325,-0.01705,0.3065
0.9451,-0.019425,0.295725
0.945875,-0.0196,0.289075
0.9460667,-0.0192,0.2923667
0.94722,-0.01978,0.3004
0.9451,-0.021,0.30425
0.945025,-0.02285,0.295925
0.9451,-0.02225,0.295375
0.946,-0.0211,0.29385
0.9493833,-0.0204667,0.2972667
0.949175,-0.0226,0.2971
0.943075,-0.023075,0.2981
