accx,accy,accz
1.20345,-0.009975,0.020375
1.2893,0.07635,0.184775
1.381425,0.1098,0.2587
1.309225,0.19555,0.25675
1.32665,0.21155,0.265925
1.3154,0.275925,0.3292
1.279275,0.21815,0.298975
1.107525,0.121,0.1484
0.984325,0.02805,0.136125
0.889775,-0.003775,0.19435
0.7972,0.0378,0.22455
0.7474333,0.0605667,0.2253
0.71464,0.08134,0.23268
0.70265,0.124825,0.2403
0.6924,0.14525,0.22575
0.709425,0.14505,0.1919
0.7255,0.1385333,0.1612
0.73695,0.1298,0.137525
0.70792,0.1152,0.14532
0.6655,0.100825,0.15425
0.67855,0.06295,0.1481
0.7738333,0.0104333,0.1563333
0.88454,0.0038,0.17646
0.965,0.04715,0.22615
0.943225,0.0767,0.294275
0.862525,0.088875,0.298825
0.8523667,0.1052,0.2558
0.935,0.14666,0.18972
1.0607333,0.1758333,0.1228
1.2854,0.140375,0.210025
1.422475,0.06,0.253075
1.27554,-0.07012,0.03642
1.184675,-0.155575,-0.071525
1.2510667,-0.1338667,0.0330333
1.353625,-0.04805,0.248825
1.310775,0.082175,0.34065
1.245975,0.09635,0.282675
1.19675,0.0474,0.2121
1.09505,0.00275,0.129125
0.988225,-0.031175,0.077825
0.912375,-0.037325,0.072675
0.8854,-0.02315,0.10965
0.8741833,-0.0251833,0.13195
0.83245,-0.056425,0.084525
0.787725,-0.086875,0.11815
0.7527333,-0.0757667,0.1921333
0.71368,-0.04582,0.21044
0.69195,-0.033075,0.152525
0.666025,-0.0448,0.154525
0.6717,-0.065,0.13765
0.732425,-0.05095,0.1654
0.7543667,-0.01,0.1735
0.79142,-0.0046,0.1468
0.8541,-0.030925,0.166175
0.894,-0.0580667,0.147
0.95212,-0.05736,0.19608
1.069675,-0.0852,0.18685
1.1683,-0.049675,0.15255
1.206325,-0.068925,0.040825
1.27265,0.00805,0.062175
1.3795,0.073325,0.155325
1.4244333,0.1547333,0.1743667
1.46884,0.2038,0.16912
1.41635,0.1799,0.056675
1.30055,0.111025,-0.049325
1.27325,0.04825,0.012925
1.2138667,0.0547667,0.1201333
1.0974,0.08984,0.19504
0.97735,0.1188,0.225875
0.88385,0.079975,0.196675
0.7667,0.055675,0.138375
0.651025,0.0506,0.106775
0.567475,0.067825,0.070675
0.527625,0.094975,0.08985
0.5105,0.10695,0.10955
0.502775,0.0985,0.110325
0.5031,0.0988333,0.0654667
0.51856,0.11648,0.07734
0.614775,0.128075,0.1627
0.76005,0.088325,0.208225
0.888675,0.022625,0.140825
0.9938333,0.0274667,0.0249667
1.03586,0.0686,0.07408
1.1128667,0.13,0.1793667
1.14825,0.1492,0.177125
1.23712,0.14572,0.10226
1.33355,0.1776375,0.0224
1.139025,0.080475,0.02125
1.17175,-0.02005,-0.037
1.3736,-0.0443,0.0269333
1.378825,0.0199,0.2573
1.34205,-0.0315,0.230025
1.28145,-0.082475,0.16045
1.23555,-0.1053,0.1691
1.144,-0.0395,0.1719
1.0249,0.0028,0.1239
0.921675,0.030475,0.0689
0.87895,0.016325,0.001375
0.84515,0.00085,-0.012175
0.818475,-0.018025,-0.00845
0.796375,-0.02285,-0.019675
0.791675,-0.013825,0.017875
0.761325,0.005525,0.093525
0.750025,0.0067,0.12475
0.7211,-0.006975,0.0846
0.67815,-0.023275,0.0263
0.665375,-0.012525,0.0621
0.749075,0.008875,0.18505
0.843275,0.005425,0.16735
0.846275,0.005425,0.008275
0.799725,0.0016,0.014375
0.912075,-0.008025,0.192875
1.018,-0.01455,0.251075
1.059425,-0.011125,0.1615
1.1379,-0.021225,0.11235
1.2162,-0.0671,0.0878
1.2543,-0.04426,0.04116
1.219825,0.04925,0.04475
1.3481,0.134025,0.191625
1.469,0.1701,0.283575
1.3814,0.1296667,0.2023333
1.25445,0.0316,0.0931
1.15102,-0.03102,0.055
1.028275,-0.008,0.081725
0.96595,0.090125,0.17295
0.9381667,0.147,0.2382333
0.86006,0.16254,0.2014
0.7419,0.1059,0.106975
0.6622,0.050475,0.0381
0.6002,-0.0027667,-0.0101
0.558025,-0.006525,-0.0247
0.5521,0.0046,0.01002
0.5687,0.044775,0.04795
0.62035,0.112475,0.09195
0.6912,0.1668333,0.0857667
0.8032,0.166225,0.1314
0.97978,0.11032,0.28836
1.09415,0.04955,0.25235
1.13685,0.025,0.16655
1.1603,-0.000175,0.22705
1.17155,0.014825,0.276375
1.24035,0.033225,0.303
1.34405,0.10695,0.245925
1.3867333,0.1737667,0.2326667
1.37998,0.11756,0.16614
1.2585333,-0.0703333,-0.0739333
0.96198,-0.10662,-0.17698
1.0648,-0.025725,0.06235
1.2809667,0.1113333,0.2733333
1.253475,0.172775,0.25435
1.19105,0.12645,0.16245
1.0661,0.111075,0.18805
0.975925,0.110175,0.186275
0.905225,0.09455,0.106925
0.8388,0.0414,0.0128
0.82715,-0.022125,-0.014
0.820375,-0.04375,0.009925
0.821375,-0.058725,0.057825
0.7964,-0.03825,0.1025
0.6976,-0.0127,0.188925
0.6069,-0.0153,0.251875
0.581975,-0.032875,0.23295
0.6681,-0.063,0.20865
0.7956,-0.0726,0.259075
0.7937,-0.060275,0.2353
0.77085,-0.06875,0.20555
0.841,-0.06085,0.23095
0.875275,-0.02665,0.250125
0.97875,-0.017925,0.324875
1.15315,-0.042275,0.268425
1.2810667,-0.0705333,0.1809667
1.35166,-0.16032,0.00974
1.446525,-0.148075,-0.131
1.575275,0.080075,0.07795
1.626625,0.214925,0.3057
1.5086,0.1346,0.0860667
1.25408,-0.09758,-0.1287
1.09645,-0.200325,0.002125
1.138525,-0.25255,0.10695
1.1431,-0.187925,0.0146
1.0050667,-0.1218,-0.0133333
0.91968,-0.07506,0.08196
0.906025,-0.006625,0.220275
0.899075,0.0228,0.20425
0.9006,0.011475,0.11005
0.8748667,-0.0015333,0.0085
0.83324,-0.0194,-0.04204
0.7925667,0.0015667,-0.0426333
0.766725,0.07115,0.052775
0.809175,0.1342,0.1673
0.84115,0.135175,0.1844
0.90236,0.1113,0.19724
1.03775,0.07125,0.295675
1.0988667,0.0187,0.3731
1.03625,-0.1039,0.369925
0.97642,-0.15174,0.26928
0.9017333,-0.1258,0.2381
0.78404,0.0612,0.19648
0.7438667,0.1595333,0.1982667
0.91575,0.222375,0.22245
1.36195,0.193325,0.315475
1.57445,-0.014975,0.01015
1.275375,-0.08835,-0.2293
1.194825,-0.127825,-0.11305
1.21585,-0.210625,-0.002975
1.073725,-0.189375,-0.039875
1.060575,-0.187625,-0.100075
1.05465,-0.15045,-0.062675
1.01625,-0.035025,0.06805
0.959725,0.05135,0.110275
0.82635,0.10205,0.0902
0.728625,0.1151,0.06555
0.6852,0.06115,0.055875
0.689225,-0.00535,0.02895
0.701575,-0.06735,-0.003425
0.775075,-0.12355,0.016625
0.883475,-0.170625,0.027525
0.948875,-0.2156,0.056525
0.975275,-0.253075,0.060875
1.00645,-0.2794,-0.04085
0.9911,-0.273725,-0.167225
0.96585,-0.217775,-0.11925
0.982925,-0.14915,0.0565
1.0243,-0.09965,0.105675
1.02435,-0.07075,0.070975
1.02165,-0.02205,0.068425
1.0036,-0.005025,0.0681
0.992075,-0.025925,0.09505
0.979675,-0.04095,0.077525
1.022325,-0.086975,0.111075
1.074075,-0.096175,0.19855
1.122975,-0.08535,0.211125
1.28295,-0.129325,-0.09505
1.39535,-0.1012,-0.20965
1.3055,-0.07815,-0.064125
1.2389333,-0.0222667,-0.0428
1.15476,-0.09348,-0.18806
1.04685,-0.134125,-0.187025
1.070675,-0.045275,0.0785
1.108675,0.074725,0.22055
1.1497,0.0774,0.1553333
1.09858,0.07566,0.06976
1.022175,-0.0438,0.04915
1.047075,-0.0608,-0.0455
1.019275,-0.071,-0.0354
0.9899,-0.107075,0.1408
0.951125,-0.113925,0.240725
0.96445,-0.139925,0.1785
0.88745,-0.082825,-0.0422
0.744325,0.06075,-0.059925
0.718,0.172875,0.038475
0.79055,0.2451,0.159925
0.88765,0.29805,0.188425
0.817775,0.275975,0.0961
0.680625,0.2065,0.021425
0.567975,0.13865,0.052225
0.5313,0.08815,0.05695
0.59365,0.03875,0.112475
0.725575,0.001825,0.19545
0.7807667,-0.0232,0.2520333
0.832625,-0.0495,0.198425
0.81045,-0.026175,0.1585
0.763675,0.054275,0.202
0.77568,0.10706,0.2678
0.7515667,0.1190667,0.2436667
0.7461333,0.0691,0.2138333
0.799275,0.024075,0.152675
0.88984,0.04784,0.15668
0.930725,0.0784,0.18765
0.952975,0.1402,0.32845
1.044025,0.06675,0.4521
1.235325,0.0581,0.3966
1.47045,0.2085,0.171575
1.637025,0.232775,0.02235
1.41275,0.36245,0.009425
1.293975,0.468775,0.241525
1.098025,0.2376,0.1295
0.916075,0.1526,-0.26035
1.0425,0.04985,-0.26135
1.222075,0.07985,-0.0711
1.215975,0.12265,0.130975
1.07285,0.22545,0.4339
1.055075,0.24535,0.363875
1.12615,0.16065,0.204075
1.04505,0.0781,0.198
0.914925,-0.030225,0.2345
0.793125,-0.079275,0.24605
0.718425,-0.108225,0.260725
0.7219,-0.164825,0.221725
0.809075,-0.2071,0.1918
0.845125,-0.1387,0.209225
0.7782,-0.148925,0.241825
0.73275,-0.11875,0.21315
0.716975,-0.0827,0.1951
0.759175,-0.067175,0.20095
0.8191,-0.032925,0.21305
0.865575,0.029225,0.249975
0.857025,0.10315,0.25105
0.8151,0.1142,0.2622
0.867675,0.0292,0.325625
0.90095,-0.062675,0.176475
0.91345,-0.13315,0.01095
0.863125,-0.123425,-0.044675
0.868075,-0.080975,-0.08315
0.95085,-0.068325,-0.14325
1.039425,-0.070325,-0.188025
1.1433,-0.0633,0.021475
1.3893,0.022725,0.2214
1.54645,0.16925,0.35365
1.780175,0.24725,0.30215
1.54555,0.245275,0.3528
1.239025,0.25415,0.4047
1.143975,0.135375,0.267125
1.1509,0.08945,0.235475
1.1204667,0.0308333,0.2406333
0.998,-0.001225,0.188775
0.87724,-0.03162,0.12482
0.748825,-0.00355,0.149425
0.658475,0.0688,0.13555
0.6397,0.1406667,0.1375333
0.646075,0.202225,0.142075
0.656375,0.264175,0.189575
0.688775,0.2718,0.20905
0.6867,0.24555,0.214825
0.6523,0.209925,0.144975
0.63518,0.15042,0.06644
0.6743333,0.1069333,0.1483
0.773725,0.0579,0.213825
0.900725,-0.0146,0.174875
0.981175,-0.0908,0.1445
0.966975,-0.0708,0.189825
0.950275,-0.019,0.2504
0.921125,0.0367,0.269925
0.91825,0.10315,0.2265
0.92125,0.150275,0.266775
0.9652333,0.1884,0.3131333
1.08704,0.22072,0.28534
1.204,0.21295,0.232375
1.16355,0.186675,0.18475
1.1096,0.057025,-0.08965
1.279,-0.1456,-0.0498333
1.40052,-0.20054,0.12276
1.260925,-0.11445,0.216275
1.1644333,-0.0077,0.2963
1.21006,0.13398,0.3981
1.326025,0.1254,0.3839
1.273925,0.069425,0.26385
1.138,0.035325,0.203
1.0184,-0.0101,0.198775
0.922425,-0.032875,0.15605
0.8665333,-0.0510333,0.1233
0.81688,-0.03688,0.141
0.765675,-0.008525,0.085075
0.713475,-0.0042,0.084425
0.70475,-0.01,0.103975
0.7234667,-0.0396,0.1040667
0.6948,-0.04742,0.08478
0.629325,-0.053775,0.018375
0.59385,-0.0396,0.03695
0.623525,0.007275,0.155325
0.6856667,0.0523333,0.2436667
0.74346,0.07282,0.25584
0.775875,0.1282,0.2554
0.83705,0.124975,0.27735
0.960025,0.10735,0.25075
1.0933667,0.0704,0.2415333
1.153075,0.020275,0.138675
1.21374,-0.04826,0.10728
1.22485,-0.095075,-0.1305
1.2597667,-0.0008,0.0131333
1.4187333,0.1688667,0.2497667
1.6743833,0.3615833,0.4767167
1.541875,0.390975,0.388375
1.3421,0.23725,0.1511
1.2378667,0.0789,0.1091
1.07402,0.05766,0.1887
0.9413333,0.0899667,0.2296333
0.8195,0.11698,0.26324
0.764575,0.10015,0.25205
0.7276667,0.0804333,0.1858
0.6754,0.0905333,0.1518333
0.64574,0.08684,0.1568
0.618225,0.060525,0.11265
0.558125,0.04125,0.039075
0.531225,0.041725,0.0238
0.5469,0.0629,0.0732
0.57108,0.10084,0.1427
0.632975,0.13835,0.115825
0.711275,0.1492,0.121525
0.793325,0.139175,0.17835
0.8490333,0.1122,0.1932333
0.88514,0.08544,0.1818
0.9119,0.083275,0.21055
0.966875,0.081125,0.25645
1.07655,0.1232,0.204075
1.2408,0.1633,0.1024333
1.39456,0.19762,0.10276
1.262475,0.21155,0.190925
1.25035,0.100575,0.056025
1.493175,-0.055425,0.031575
1.7124,-0.1202333,0.1639667
1.38872,-0.00608,0.18776
1.25125,0.054075,0.1932
1.206625,0.07425,0.3232
1.1564,0.03705,0.263475
1.1036667,0.0226333,0.1826333
1.01356,0.01628,0.1272
0.92565,0.005125,0.100575
0.879375,-0.008575,0.092175
0.837025,-0.04575,0.070975
0.79645,-0.0538,0.0551
0.75445,-0.048025,0.101775
0.719975,-0.048625,0.111925
0.6696,-0.028725,0.126175
0.614725,-0.009525,0.1593
0.609075,0.00065,0.16995
0.707325,0.0083,0.178775
0.741275,0.001,0.157925
0.684825,0.007675,0.1161
0.68945,0.036175,0.15155
0.7863667,0.0342333,0.2681667
0.96574,-0.0115,0.27208
1.0527,-0.046425,0.0643
1.00875,-0.05625,0.096275
1.1559667,-0.0839,0.1272
1.387325,-0.09095,0.27375
1.44832,-0.00816,0.05048
1.292175,0.11065,0.073
1.2922,0.1364,0.139425
1.3243,0.1836,0.2257
1.40065,0.19615,0.2944
1.390075,0.202025,0.23945
1.18655,0.1871,0.108
1.07735,0.111325,0.078925
1.01535,0.06155,0.1351
0.911325,0.063725,0.1567
0.8245,0.072725,0.131825
0.762325,0.0739,0.146375
0.721925,0.077675,0.125625
0.677475,0.07505,0.0873
0.64,0.085875,0.078725
0.625125,0.10535,0.091575
0.618575,0.08665,0.111725
0.581725,0.07145,0.076925
0.52345,0.077775,0.074575
0.4979667,0.1074,0.1405667
0.54312,0.0984,0.15756
0.616825,0.09015,0.202975
0.74105,0.053525,0.253325
0.888725,0.078175,0.241725
1.02055,0.10755,0.23885
1.125125,0.1474,0.1878
1.335375,0.1273,0.179575
1.550125,0.079375,0.2568
1.2925,0.142925,-0.0733
1.0181,0.1906,-0.2367667
1.0568,0.14078,0.06068
1.59895,-0.098375,0.3547
1.543025,0.0001,0.2592
1.224125,0.121225,0.0408
1.16625,0.104075,-0.1303
1.180175,0.042875,-0.007225
1.123275,-0.0002,0.209575
1.203575,-0.018925,0.248125
1.133075,0.008475,0.2535
1.0011,-0.0001333,0.1789667
0.92308,-0.05212,0.1138
0.8264,-0.116675,0.040075
0.74905,-0.13505,0.025375
0.7102333,-0.0896667,0.1227667
0.6801,0.000375,0.26595
0.70454,0.05314,0.24152
0.757975,0.0682,0.14735
0.739225,0.015075,0.106575
0.660925,-0.023625,0.142025
0.6740333,-0.0383333,0.1618333
0.7152,-0.02872,0.14074
0.765,-0.018125,0.1102
0.838975,0.006,0.144775
0.9919667,0.0193333,0.2075667
1.18445,0.020675,0.24125
1.21682,0.06514,0.03192
1.140375,0.128875,-0.16435
1.4009,0.197775,0.11775
1.5977333,0.4824333,0.5008
1.7113,0.23655,0.526275
1.44618,0.17868,0.10902
1.276,0.00845,-0.1873
1.2421,0.0262167,-0.0458833
1.0941,-0.0119333,0.1582667
0.93104,0.00412,0.19744
0.860075,0.03215,0.1814
0.750625,0.066575,0.17895
0.629125,0.0693,0.20115
0.5663667,0.0600667,0.1928
0.5357,0.062575,0.176875
0.56222,0.0655,0.16772
0.56815,0.05745,0.105225
0.56285,0.046375,0.09915
0.5527,0.064,0.1490333
