accx,accy,accz
1.112175,0.175075,-0.2972
1.246275,0.3241,-0.2014
1.1753,0.31675,-0.216775
1.00375,0.207075,-0.27905
0.827175,0.068375,-0.224625
0.757,-0.040375,-0.1648
0.8415,-0.074725,-0.15385
1.017625,0.019075,-0.110575
0.992725,0.03325,-0.0861
0.911725,0.04845,-0.03675
0.829625,0.06315,0.03855
0.793725,0.08415,-0.0009
0.790075,0.061775,-0.035425
0.8538,0.014825,-0.03035
0.8712,0.0204,0.026925
0.8796667,0.0109333,0.1171
0.834,-0.03188,0.14572
0.81435,-0.083975,0.105875
0.86215,-0.08635,0.090125
0.9662,-0.053525,0.185975
1.0166667,-0.0175667,0.2539333
1.07152,-0.01136,0.15656
1.1077,-0.0058,0.1168
1.10845,-0.010275,0.205425
1.1029,-0.005475,0.1965
1.1254667,-0.0404333,0.202
1.18026,-0.05516,0.27156
1.26125,0.024725,0.293225
1.139175,0.17235,-0.141075
1.1004,0.3286667,-0.3611667
1.02726,0.22596,-0.29418
1.1343667,0.0990333,-0.2874333
1.08952,0.10202,-0.26338
1.029175,0.20025,-0.1443
1.0592,0.2468,0.044725
1.026675,0.1815,0.11515
0.974725,0.0735,-0.003025
0.8803,0.0438,-0.030625
0.817475,0.0038,-0.02045
0.8221,-0.043925,0.02415
0.835625,-0.022225,0.0672
0.78985,0.032125,0.060475
0.7268333,0.0868,0.0601667
0.74302,0.10646,0.06324
0.7582667,0.1271333,0.0752333
0.77812,0.1266,0.09102
0.8316,0.1424,0.104025
0.8962,0.141075,0.149125
0.940625,0.145875,0.18035
0.9835,0.1507,0.1790333
1.01812,0.1453,0.20044
1.074225,0.130525,0.108525
1.1376333,0.1251,0.0507
1.3,0.107225,0.1558
1.375175,0.049375,0.35875
1.25008,0.01994,0.44108
1.1133333,-0.0567,0.3611333
1.041075,-0.0639,0.033475
0.990275,0.0435,-0.3697
1.0228,0.19765,-0.39385
1.113825,0.31605,-0.27335
1.102625,0.2798,-0.129775
1.00265,0.193275,-0.100925
0.9001,0.0869,-0.1717
0.862025,-0.002225,-0.239125
0.9157,-0.0141333,-0.2456333
1.0633,0.03186,-0.07844
1.05985,0.028925,0.0601
0.921925,0.024125,0.02325
0.815775,0.0325,-0.0024
0.7123333,0.0525,0.0092667
0.62028,0.10736,0.01684
0.7219,0.091425,0.040475
0.83135,0.0437,0.030225
0.84715,0.0198,0.01495
0.8695,-0.0219,0.0238667
0.8791,-0.0364,0.0428
0.92282,-0.0195,0.08452
0.99225,-0.026575,0.1727
1.0025,-0.0415,0.271225
1.0015,-0.0603,0.23005
0.9713,-0.07895,0.2109
1.00455,-0.073525,0.169525
1.047675,-0.063725,0.187375
1.030825,-0.038425,0.37005
1.050275,-0.0619,0.387575
1.049,-0.0696,0.2095
1.0814333,-0.0663833,0.1053167
1.264325,0.182125,-0.244725
1.2101,0.3307333,-0.2797
1.1138,0.4067,-0.11276
1.1237,0.374225,-0.233
1.27575,0.27365,-0.296075
1.339875,0.29685,-0.13245
1.1609333,0.2769,0.0892333
1.04052,0.133,0.08572
0.895225,0.1947,-0.066275
0.850125,0.200175,-0.07105
0.8871,0.05165,0.011525
0.8770667,-0.05,0.0608333
0.806125,-0.07985,0.078775
0.7046,-0.03922,0.07894
0.619375,0.0463,0.102875
0.6215667,0.1090333,0.1061
0.72694,0.1185,0.1077
0.843875,0.1303,0.1201
0.86265,0.1569,0.1699
0.86274,0.1566,0.21574
0.914975,0.1001,0.229025
1.0018,0.075875,0.188975
1.05345,0.055125,0.166
1.1557,0.09375,0.198575
1.39095,0.0883,0.27055
1.456025,0.06465,0.4157
1.2149,0.0094,0.40835
1.168625,-0.03515,0.19035
1.139225,0.01845,-0.2531
1.12875,0.2448,-0.435625
1.236525,0.321725,-0.182575
1.152575,0.3376,-0.17125
1.0521,0.1872667,-0.2013
0.84686,-0.00146,-0.21622
0.7763,-0.1186,-0.15235
0.86425,-0.0511,-0.166625
0.959875,0.08,-0.123525
1.0313,0.1179,-0.02135
0.949425,0.1164,-0.004625
0.86645,0.1048,0.002925
0.756125,0.08695,-0.002975
0.69655,0.08775,-0.0296
0.685375,0.078575,-0.000875
0.816625,0.0168,0.107525
0.8178,-0.00055,0.1533
0.8195,-0.017275,0.092
0.873275,-0.0405,0.0303
0.957725,-0.03585,0.0491
0.9998,0.010575,0.11675
1.0329,0.054125,0.1771
1.047625,0.080725,0.233575
1.0668,0.0514,0.2367
1.091425,-0.014175,0.18035
1.098775,-0.0457,0.1995
1.0995,-0.0432,0.26395
1.165625,-0.0033,0.303575
1.23735,0.137975,0.0901
1.1454667,0.2544,-0.3371333
0.99102,0.28798,-0.35454
1.10175,0.233,-0.2015
1.152175,0.2157,-0.185025
1.2024,0.2328667,-0.1332
1.26484,0.21924,0.04698
1.1705,0.1755,0.106125
0.989575,0.114925,-0.0025
0.83635,0.1185,0.03505
0.75865,0.04875,0.033875
0.703925,-0.0043,-0.003875
0.7014667,-0.0467667,0.0551333
0.72526,-0.02494,0.17004
0.728025,0.00185,0.17695
0.7051,0.0237333,0.0844333
0.73866,0.06846,0.04888
0.814675,0.11175,0.15195
0.8907,0.142575,0.24945
0.931475,0.163725,0.26365
0.9556,0.1372333,0.2325667
0.96664,0.12838,0.19078
0.988825,0.115075,0.10795
1.0879,0.0985,0.0535
1.365575,0.07265,0.207725
1.4295667,0.0494667,0.4940333
1.244425,0.00445,0.505625
1.06612,-0.05786,0.31668
1.09395,-0.062075,-0.146025
1.055325,0.128675,-0.4008
1.1664,0.2316667,-0.0773
1.27262,0.2384,0.01262
1.2179,0.1634,-0.1349333
1.0178,0.053075,-0.204825
0.8751,-0.0083,-0.196025
0.87975,0.016975,-0.05205
0.976375,0.07925,0.032375
0.997625,0.11635,-0.050375
0.92475,0.13825,-0.03835
0.802125,0.1322,0.063175
0.717825,0.090125,0.082525
0.6752667,0.0871667,0.0551
0.69046,0.03158,0.07378
0.751475,-0.0237,0.134825
0.792725,-0.059025,0.184175
0.8406,-0.08855,0.1694
0.8912333,-0.0998667,0.0934667
0.96608,-0.08194,0.12054
1.029775,-0.050925,0.2762
1.064875,-0.020525,0.257625
1.076775,0.02105,0.1841
1.058975,0.021375,0.2013
1.0675,0.001175,0.2427
1.07685,-0.014175,0.224175
1.0813,-0.024475,0.230775
1.168675,0.0182,0.304775
1.267675,0.133225,0.0225
1.0483,0.295775,-0.284375
0.9491,0.2285,-0.269575
1.0256,0.1418,-0.2846667
1.243075,0.135925,-0.24195
1.23968,0.19456,-0.03928
1.129375,0.2526,0.244725
1.0652,0.14455,0.159875
0.945575,0.04375,-0.04325
0.8521333,0.1395333,-0.04
0.834475,0.116825,-0.011225
0.82984,0.01882,-0.00056
0.791075,0.01705,0.063025
0.768725,0.06415,0.1374
0.7225,0.0513667,0.132
0.68706,0.0592,0.0453
0.72625,0.082075,0.055475
0.800125,0.07995,0.158
0.8585,0.096725,0.24965
0.8795,0.1144,0.2524333
0.91735,0.13095,0.194525
0.9814,0.12874,0.18438
1.044825,0.112775,0.182325
1.142825,0.0752,0.129575
1.2522667,0.0391667,0.1569667
1.320475,0.045825,0.31635
1.16774,0.03534,0.41412
1.082825,0.03495,0.252425
1.1173333,-0.0335667,-0.0668667
1.0738,0.064225,-0.412375
1.21498,0.2344,-0.34026
1.371075,0.29925,-0.08565
1.249575,0.248225,-0.146275
1.0577,0.1518,-0.191475
0.8837667,0.0304333,-0.1833667
0.8270333,-0.0617667,-0.1882667
0.87094,-0.06164,-0.19758
0.947275,0.0295,-0.1166
0.9394,0.053975,-0.00065
0.83825,0.0844,0.084975
0.7396,0.0933,0.05925
0.673725,0.1214,0.0054
0.652175,0.125075,-0.016525
0.7243,0.0683,0.0002
0.86285,0.0052,0.066325
0.9233,-0.036125,0.115325
0.937275,-0.057775,0.106125
0.963075,-0.0712,0.083625
0.9537,-0.06345,0.119
0.9568,-0.035075,0.221575
0.98725,-0.002425,0.2263
1.055025,0.01005,0.15715
1.0926,-0.00365,0.16945
1.113825,-0.015375,0.20335
1.1151,-0.027475,0.239025
1.138225,0.00085,0.3054
1.241375,0.03965,0.3253
1.242875,0.158025,0.018125
1.049475,0.253725,-0.184525
1.05595,0.1432,-0.157925
1.096325,0.151975,-0.194175
1.109775,0.13295,-0.234775
1.09915,0.142625,-0.24305
1.090175,0.136275,-0.1025
1.076525,0.171,0.134175
0.97,0.1288,0.111125
0.818325,0.13505,-0.060575
0.75445,0.15735,-0.13515
0.76735,0.0847,-0.07095
0.781725,0.053575,0.08715
0.7795333,0.0650667,0.1618333
0.77196,0.06734,0.1185
0.756325,0.069825,0.06005
0.77075,0.07905,0.089975
0.8029,0.0979,0.1496333
0.8514667,0.0901667,0.2011333
0.8775333,0.1195833,0.1719
0.92165,0.1241,0.182425
0.989875,0.11765,0.21855
1.0472667,0.1023333,0.2166
1.0932333,0.1095667,0.1700667
1.17975,0.10425,0.0979333
1.310975,0.073775,0.285
1.239875,0.031225,0.5011
1.0538,0.0128667,0.4515667
1.01944,-0.02602,0.1689
1.02915,-0.028975,-0.269875
1.0256667,0.1369,-0.4227
1.17292,0.24988,-0.19166
1.3125,0.2879667,-0.0416
1.2856,0.2515333,-0.1026333
1.1629,0.10754,-0.21482
0.891475,-0.013375,-0.177
0.86275,-0.08965,0.016525
0.967125,0.02645,0.02515
0.983925,0.09435,-0.0444
0.887075,0.09845,0.021775
0.73744,0.11282,0.10572
0.6316333,0.1194,0.1147333
0.6147,0.0966333,0.0790667
0.6654,0.05196,0.06958
0.782425,0.005375,0.074225
0.83415,-0.007775,0.096525
0.8832,-0.02665,0.1536
0.9875,-0.05565,0.183525
1.059975,-0.048575,0.18995
1.07385,-0.0498,0.18695
1.083375,-0.041925,0.2121
1.074625,-0.004475,0.272075
1.0634333,-0.0067333,0.3247333
1.08778,0.0086,0.2972
1.11515,-0.001525,0.31805
1.1845,0.0060667,0.3014
1.23692,0.13702,0.02028
1.041925,0.266,-0.14555
1.02905,0.170575,-0.13505
1.17595,0.09905,-0.1511
1.1537,0.1139,-0.080325
1.070725,0.182975,0.0163
0.9800667,0.2115333,0.0844333
0.9649,0.24316,0.11334
0.96095,0.1606,0.080025
0.899075,0.1673,0.001575
0.88245,0.095325,-0.04015
0.8391,0.0326,-0.0377
0.78414,0.03238,0.04022
0.7386,0.06295,0.1396
0.7235,0.08335,0.14155
0.725325,0.091025,0.107325
0.74965,0.104,0.1404
0.8035,0.113125,0.187275
0.8861,0.10015,0.1915
0.97575,0.116425,0.1853
1.020775,0.10725,0.22265
1.0487667,0.0966667,0.2614
1.084925,0.0781,0.231875
1.158725,0.06955,0.159875
1.3004,0.07236,0.28406
1.2472,0.0540333,0.4247667
1.09125,0.00655,0.36975
1.07125,-0.04415,0.2878
1.1063333,-0.0349333,-0.0365667
1.0223167,0.1624,-0.4053667
1.0512,0.2694667,-0.1507
1.144175,0.25055,-0.053625
1.1655,0.16395,-0.10355
1.035475,0.117325,-0.0945
0.9119,0.01045,-0.071075
0.910625,-0.031875,-0.062475
0.994775,-0.0178,-0.097425
1.04645,0.0225,-0.0843
0.9326,0.038875,-0.004575
0.764125,0.075225,0.144375
0.645575,0.103825,0.173025
0.596325,0.112325,0.143675
0.647475,0.069975,0.09945
0.74895,0.00735,0.078175
0.801725,-0.03995,0.1223
0.9131,-0.08915,0.142675
1.047025,-0.112025,0.137275
1.11875,-0.089375,0.175525
1.08215,-0.062025,0.273325
1.056,-0.04915,0.270375
1.089675,-0.053275,0.24155
1.1041333,-0.0462667,0.2331667
1.11314,-0.01412,0.22648
1.13265,0.0008,0.23125
1.16365,0.014825,0.271975
1.225225,0.05185,0.2276
1.18945,0.16255,-0.0442
1.07115,0.242725,-0.186725
1.043975,0.17105,-0.1784
0.99345,0.1392,-0.151325
0.9768,0.16525,-0.036225
0.958275,0.191675,-0.0075
0.98,0.2096,-0.031875
0.9748667,0.2528333,-0.0407667
1.04406,0.20146,-0.00586
1.041575,0.159425,-0.03535
0.9554,0.0892,-0.008425
0.8483,0.024225,0.11125
0.729025,0.0019,0.201075
0.6629,0.002125,0.18645
0.647025,0.010075,0.148425
0.6792,0.06285,0.097725
0.774825,0.090625,0.1033
0.874125,0.10585,0.155525
0.989675,0.104825,0.163225
1.0645333,0.1187333,0.1713
1.111,0.118375,0.1883
1.148,0.08866,0.2673
1.1554,0.06435,0.339675
1.1063,0.0364,0.340475
1.051525,-0.006925,0.3091
1.0661,-0.0497667,0.3289
1.0343,-0.06194,0.36618
0.97225,-0.03005,0.3493
0.962125,-0.003675,0.169125
1.03125,0.094225,-0.2202
1.001925,0.314975,-0.4512
1.1625667,0.4927333,-0.2245333
1.47834,0.32234,0.07974
1.422425,0.28135,0.006675
1.2284333,0.1516667,-0.1498333
0.91174,0.008,-0.13636
0.696275,-0.039525,-0.180875
0.63775,-0.0316,-0.256
0.6811167,-0.0707833,-0.1752833
0.9350667,-0.0787667,0.0452667
1.0384,-0.000675,0.19955
0.940825,0.113225,0.15335
0.826975,0.12295,-0.039375
0.8751,0.08946,0.0373
0.8719,0.0361667,0.1179333
0.8657,0.028475,0.0424
0.85095,0.05505,-0.0093
0.86645,0.063575,0.00385
0.82835,0.028725,0.0671
0.82375,-0.00495,0.121375
0.8349,-0.0167,0.144
0.8701,0.019125,0.152625
0.92675,0.047775,0.15965
0.982975,0.04325,0.18195
1.14865,0.026575,0.271725
1.279825,-0.0314,0.3129
1.207475,-0.02485,0.328025
1.088325,-0.00635,0.32355
1.059075,-0.004775,0.2504
1.0348,0.02665,0.2138
1.115275,0.1594,0.072725
1.114425,0.25305,-0.213375
1.094375,0.201725,-0.313575
1.148075,0.138775,-0.26285
1.184825,0.09025,-0.09635
1.065,0.173975,0.0342
0.943125,0.2497,0.085075
0.9104333,0.2904,0.0858333
0.97105,0.184075,0.106675
1.01614,0.10406,0.0432
0.914225,0.054575,-0.016825
0.7902,-0.025125,0.026825
0.677925,0.0129,0.1108
0.63,0.040925,0.18925
0.663925,0.042025,0.2293
0.725225,0.0842,0.1582
0.78185,0.09345,0.100325
0.8161,0.11655,0.18345
0.8891167,0.1528,0.27295
0.96155,0.166325,0.237125
0.979325,0.154675,0.2125
1.043025,0.12485,0.23705
1.08535,0.096875,0.21575
1.1476,0.043925,0.223175
1.2645,-0.008675,0.3291
1.30045,-0.035325,0.5035
1.18995,-0.049975,0.6038
1.13725,-0.0729,0.435
1.0945,0.0084167,-0.1701333
0.9426667,0.1556333,-0.3593
1.05932,0.29494,-0.10708
1.2393333,0.2738667,0.0365333
1.2319,0.2008,0.0635333
0.9957,0.1095,-0.0138
0.8869333,-0.0289,-0.1220333
0.91235,-0.087575,-0.2136
0.9912333,-0.0486,-0.2547333
1.05672,0.00654,-0.15148
0.90532,0.04654,0.17568
0.7601333,0.1006667,0.3055667
0.6911,0.09795,0.16205
0.63085,0.09785,0.054975
0.67495,0.066,0.078375
0.75754,0.03,0.12598
0.7855667,-0.0035,0.1112333
0.828625,-0.030125,0.091625
0.871525,-0.06175,0.132525
0.953525,-0.044975,0.179575
1.044325,-0.016175,0.1806
1.121775,0.0131,0.2004
1.167875,0.033175,0.214225
1.16025,0.021325,0.266775
1.145625,-0.00415,0.306325
1.170375,-0.05175,0.2944
1.207075,0.016125,0.338075
1.2901,0.150525,0.16705
1.194025,0.300725,-0.319225
1.036675,0.2747,-0.385325
1.004325,0.206175,-0.23805
1.08405,0.203875,-0.0966
1.068475,0.208975,-0.110325
0.9677,0.26925,-0.05325
0.9361,0.263525,0.042425
0.936775,0.114625,0.1276
0.91275,0.101825,0.065475
0.8319,0.05595,-0.0225
0.749775,-0.0108,-0.0319
0.6762,-0.0151,0.0362
0.62525,0.015325,0.122375
0.655725,0.053525,0.1782
0.74805,0.087325,0.1569
