accx,accy,accz
0.96722,0.11002,0.15842
0.98555,0.096175,0.228575
0.9803,0.070575,0.225275
0.9737,0.0333,0.199175
0.966675,0.006925,0.20475
0.975275,0.003325,0.208475
0.988625,0.031275,0.234575
0.986725,0.055375,0.2534
0.98225,0.0641,0.2249
0.94715,0.0703,0.213
0.9279,0.06905,0.203225
0.92395,0.07515,0.231975
0.9441,0.08785,0.232
0.964075,0.124225,0.2039
0.970425,0.151475,0.19715
0.98565,0.171325,0.161725
1.0134667,0.1698,0.1105667
1.00246,0.16226,0.10836
0.94205,0.148575,0.1699
0.8742,0.140325,0.232075
0.8899,0.13045,0.252725
0.916525,0.130775,0.193675
0.974925,0.138525,0.154125
1.0482667,0.1508333,0.1705333
1.069225,0.2085,0.1851
0.999825,0.284525,0.2934
1.02155,0.2664,0.3385
0.933025,0.211425,0.413775
0.867725,0.1672,0.328475
0.874925,0.143475,0.227225
0.88125,0.120075,0.246175
0.8871,0.121,0.291025
0.893525,0.1363,0.326125
0.866075,0.148325,0.29995
0.8743,0.168775,0.28985
0.904575,0.15945,0.330975
0.904025,0.154175,0.337975
0.86295,0.1604,0.320125
0.825425,0.167975,0.316225
0.80915,0.173,0.3172
0.81435,0.17385,0.314025
0.8311,0.17875,0.325625
0.829375,0.17905,0.343925
0.83755,0.17585,0.2704
0.8107,0.187925,0.177625
0.79385,0.2165,0.22835
0.8405,0.21815,0.307025
0.8762,0.2168,0.324775
0.8745,0.213525,0.2774
0.84785,0.1862,0.219225
0.831825,0.151525,0.2606
0.810925,0.1546,0.3163
0.7835,0.1716,0.3445
0.750275,0.1917,0.377525
0.730675,0.21265,0.4003
0.805075,0.203875,0.3134
0.8660667,0.2220667,0.2110667
0.8831,0.18926,0.26632
0.99345,0.184,0.182025
1.12015,0.212,0.090125
1.129275,0.26395,0.029
1.059925,0.29605,-0.0746
1.051775,0.252375,0.12205
1.1091,0.17175,0.255225
1.250325,0.116525,0.215075
1.41905,0.04485,0.209625
1.44355,-0.03195,0.191725
1.364225,-0.0226,0.073
1.256875,0.014225,0.12275
1.13625,0.07285,0.320925
1.00955,0.09385,0.303
0.8772,0.1090333,0.2470667
0.77304,0.08018,0.18076
0.7801,0.0337,0.094575
0.792925,0.032925,0.1
0.814125,0.051775,0.163325
0.814725,0.06775,0.215375
0.827325,0.06085,0.2072
0.83195,0.0627,0.199225
0.829825,0.066775,0.18225
0.776875,0.07065,0.200525
0.7134667,0.0648667,0.2325667
0.68378,0.05444,0.2142
0.715075,0.04915,0.253675
0.745125,0.0196,0.249225
0.7606333,0.0123333,0.2282667
0.770625,0.03635,0.1894
0.768525,0.0556,0.179925
0.789275,0.03395,0.3343
0.8042,0.04535,0.446225
0.8997,0.0677,0.484325
1.167925,0.07845,0.11405
1.36485,0.112325,0.020925
1.43295,0.20435,0.077625
1.47155,0.2401,0.16265
1.36875,0.296625,0.334425
1.325175,0.31185,0.38235
1.313,0.3347,0.347925
1.2101,0.30935,0.30555
1.11945,0.249875,0.3104
1.093525,0.175625,0.303325
1.055825,0.13495,0.2719
0.993975,0.1342,0.2435
0.941575,0.138975,0.2075
0.868675,0.159425,0.23415
0.814925,0.15535,0.274
0.769575,0.144825,0.301075
0.740625,0.1414,0.311475
0.7245,0.14715,0.308075
0.7126,0.168425,0.25855
0.72725,0.2041,0.21115
0.759075,0.227125,0.21555
0.7962,0.215125,0.20145
0.743075,0.17495,0.11905
0.64835,0.1655,0.083025
0.643525,0.185825,0.228825
0.722025,0.214675,0.26635
0.7207,0.243625,0.20075
0.64815,0.2156,0.21855
0.659525,0.159675,0.272225
0.714975,0.144975,0.302475
0.7575,0.12845,0.36295
0.82395,0.1357,0.342875
0.9216,0.1683,0.274775
1.034075,0.2109,0.152675
1.143525,0.208,-0.032975
1.18045,0.21995,-0.105325
1.138975,0.2479,-0.01005
1.1872333,0.235,0.2121
1.343825,0.193725,0.345375
1.59708,0.17182,0.2468
1.703025,0.14905,0.02195
1.612875,0.115275,0.22515
1.263775,0.0385,0.34535
1.091075,0.012125,0.2389
0.9520333,0.001,0.1631333
0.83922,0.01396,0.06648
0.7853333,0.0614667,0.042
0.7686,0.105425,0.144475
0.7226,0.1667,0.2184
0.679875,0.15435,0.19605
0.6223667,0.1251667,0.1830333
0.5467,0.06632,0.13132
0.49265,0.031875,0.000475
0.388825,0.011125,0.037375
0.437075,-0.017875,0.1297
0.57295,-0.005425,0.17225
0.683175,0.062825,0.2581
1.01065,0.07555,0.20335
1.1334,0.134075,0.053175
1.227675,0.201925,-0.003325
1.42315,0.19615,0.133425
1.54025,0.17195,0.058325
1.4414,0.24335,-0.02675
1.356975,0.34245,0.327575
1.5432,0.38535,0.69265
1.6444,0.380375,0.336575
1.638925,0.25355,0.196375
1.303375,0.198875,0.11795
1.02545,0.1437,-0.0173
0.786575,0.0913,0.079175
0.6841,0.093725,0.232
0.695575,0.1651,0.312325
0.731875,0.181875,0.258475
0.7514,0.186075,0.146675
0.76225,0.1645,0.1585
0.7746,0.138675,0.17995
0.801475,0.1387,0.160625
0.799125,0.164675,0.110025
0.7766,0.19725,0.064575
0.75705,0.2236,0.1152
0.779225,0.24205,0.1943
0.8256,0.2432,0.235475
0.799425,0.23595,0.23905
0.76515,0.196525,0.243425
0.754275,0.132775,0.2163
0.7797,0.0828,0.22875
0.7688,0.060175,0.289275
0.783,0.05595,0.3548
0.81205,0.1001,0.2999
0.7611,0.122875,0.2912
0.84075,0.163775,0.31725
0.914875,0.1727,0.28545
1.006875,0.193975,0.172775
1.097075,0.20445,0.06945
1.181625,0.224325,-0.1292
1.20785,0.247475,-0.13495
1.1901,0.304325,0.032
1.337975,0.3395,0.125675
1.53105,0.236625,0.245325
1.46275,0.039,0.293275
1.50145,-0.06405,0.0691
1.413775,-0.1191,-0.00865
1.221975,-0.052675,0.04905
1.0825,0.0098667,0.1305667
0.9815,-0.0016,0.2634
0.911,0.04076,0.2598
0.876475,0.02565,0.2626
0.760975,0.0171,0.215425
0.710625,-0.011775,0.103475
0.74555,-0.015775,0.0845
0.8315333,-0.0173333,0.0589667
0.87398,0.0165,0.03736
0.8922,0.051,0.1246
0.8854,0.0861,0.178
0.86235,0.097525,0.151375
0.8002,0.08945,0.10225
0.725825,0.056625,0.118875
0.699975,0.033225,0.056925
0.706525,0.03105,0.11165
0.679375,0.0239,0.2221
0.688,0.0727,0.18485
0.715025,0.093275,0.200625
0.7802,0.11525,0.283825
0.869125,0.106275,0.343025
0.9322,0.09275,0.33045
0.976325,0.0748,0.24265
1.0269,0.087025,0.179625
1.1276,0.1395,0.228525
1.259125,0.16725,0.18935
1.328475,0.18665,0.028875
1.350875,0.24995,-0.0109
1.282225,0.315975,0.135225
1.2157,0.379125,0.38315
1.331825,0.430075,0.472775
1.458625,0.426125,0.394725
1.288025,0.263975,0.27885
1.098475,0.168925,0.12995
0.955575,0.08245,0.110925
0.855975,0.037125,0.16325
0.80695,0.064775,0.179325
0.801175,0.09305,0.2015
0.8228333,0.1157333,0.2554667
0.8204,0.10254,0.28998
0.812825,0.07755,0.254925
0.78865,0.08015,0.2505
0.751925,0.1111,0.2276
0.75215,0.16855,0.200075
0.7562,0.219575,0.235875
0.792025,0.2224,0.141875
0.77785,0.236075,-0.00125
0.70095,0.271625,-0.02855
0.644975,0.2816,0.086
0.648225,0.2511,0.16155
0.7647,0.223725,0.12345
0.791875,0.168175,0.326
0.86925,0.129375,0.33835
0.898675,0.1123,0.2573
0.89265,0.158075,0.139025
0.8721,0.1887333,0.1105333
0.945825,0.158025,0.053175
1.06386,0.19174,-0.05944
1.06575,0.2055,-0.0803
1.0692,0.200575,-0.09695
1.14405,0.189575,0.003575
1.3141333,0.1461667,0.1109333
1.57152,0.10924,0.1698
1.7813,0.0419,0.1062
1.78012,0.06286,0.06378
1.419775,0.0289,0.226175
1.1889667,0.0445,0.1775667
1.119425,0.0333,0.069825
1.0627,0.04534,-0.05422
0.8345333,0.0921,-0.1308333
0.641875,0.142075,-0.1179
0.65705,0.170075,-0.035175
0.693725,0.16805,0.107625
0.742875,0.134075,0.189475
0.729875,0.0999,0.149
0.7452,0.054675,0.048425
0.812825,0.027,-0.020025
0.8315,-0.011375,-0.0513
0.729875,-0.0024,-0.0014
0.6423,0.0449,0.143075
0.6504,0.0826,0.259375
0.703175,0.117875,0.18985
0.765175,0.048375,-0.031625
0.759,-0.016425,0.019225
0.714875,-0.02385,0.29995
0.666175,0.055175,0.39715
0.863825,0.145,0.145675
1.077625,0.219225,0.1121
1.25,0.314725,0.155225
1.31705,0.428675,0.20065
1.4825,0.3935,0.130375
1.583925,0.31705,0.1768
1.553125,0.34745,0.19125
1.611375,0.333625,-0.010175
1.542525,0.3417,0.01745
1.33185,0.295725,0.361625
1.021475,0.242425,0.444375
0.8866,0.214125,0.20875
0.7606,0.1909,0.143075
0.729675,0.216025,0.160325
0.74565,0.184375,0.153825
0.719975,0.154275,0.132775
0.70085,0.102425,0.15945
0.684875,0.0979,0.14415
0.6614,0.122825,0.13705
0.673475,0.1442,0.228575
0.69875,0.146475,0.235375
0.712075,0.15265,0.06975
0.644975,0.1736,-0.05865
0.4899,0.22855,0.047525
0.5458,0.2587,0.2235
0.70245,0.235075,0.1203
0.799775,0.199525,-0.01995
0.83825,0.169325,0.117175
0.842425,0.13865,0.5395
0.892425,0.082125,0.601775
0.9509667,0.0823,0.2915333
1.00526,0.10702,0.18834
1.21215,0.16895,0.1913
1.3498667,0.2215,0.2861667
1.42502,0.21566,0.18144
1.354425,0.19905,0.085275
1.323675,0.2324,0.0998
1.424725,0.26245,0.0904
1.588425,0.269575,0.159325
1.565425,0.27885,0.47155
1.2606,0.0882,0.5151333
1.22675,0.0548,0.24795
1.1452,-0.056425,0.1074
0.96332,-0.11622,-0.05076
0.6977333,-0.1187,-0.0726
0.631275,-0.032875,0.0455
0.71725,0.0976,0.150675
0.7432,0.126125,0.18695
0.713875,0.141875,0.16945
0.725225,0.124375,0.179825
0.810025,0.1222,0.194125
0.874,0.104325,0.19265
0.904925,0.054675,0.16085
0.877375,0.04735,0.053075
0.822175,0.0587,0.026675
0.7654,0.082425,0.02785
0.699,0.082175,0.02925
0.701075,0.069975,0.118825
0.728275,0.0547,0.283025
0.8225,0.003125,0.36155
0.87105,-0.01525,0.247325
0.87065,-0.011525,0.148525
0.901575,-0.02595,0.259975
0.941775,0.00155,0.437675
1.0346,0.03765,0.424025
1.126875,0.10615,0.20555
1.123475,0.15785,0.1371
1.1911,0.21815,0.1665
1.32335,0.285725,0.083575
1.44635,0.376425,0.227675
1.460125,0.450175,0.30795
1.45375,0.465525,0.283775
1.37565,0.382125,0.317375
1.155175,0.273575,0.2641
0.935725,0.176425,0.1744
0.776925,0.0823,0.191025
0.72855,0.014375,0.26755
0.706775,0.014375,0.342575
0.695675,0.022175,0.336975
0.71055,0.04,0.2984
0.7380667,0.0565667,0.2566
0.75738,0.08148,0.21872
0.70855,0.1131,0.242825
0.7091,0.15045,0.246675
0.69465,0.151075,0.18685
0.7019,0.1429,0.1773667
0.72126,0.13904,0.16008
0.752125,0.17485,0.274475
0.7696667,0.1865333,0.3810333
0.79155,0.179175,0.358825
0.824525,0.14745,0.333275
0.93378,0.14774,0.3846
0.99625,0.15535,0.475575
1.0082333,0.1618333,0.4762
1.034325,0.15935,0.36575
1.003325,0.183275,0.2983
0.991525,0.19045,0.094575
1.021225,0.192725,0.03305
1.12945,0.223725,-0.015525
1.30955,0.19965,0.00345
1.6637,0.178275,0.20505
1.802025,0.14465,0.06225
1.74225,0.125375,-0.11095
1.417575,0.175425,0.1327
1.1466,0.212175,0.194475
0.900225,0.181875,0.1413
0.8005,0.1011333,0.1442667
0.7368,0.09472,0.14816
0.763175,0.071075,0.126975
0.8464,0.05085,0.116375
0.87095,0.06435,0.13815
0.871575,0.028575,0.1487
0.857525,0.0201,0.0788
0.841975,0.0017,-0.0085
0.836225,0.000725,0.009325
0.83295,0.022125,0.0646
0.8285,0.03445,0.1131
0.859275,0.0242,0.1416
0.89985,0.040925,0.1691
0.93205,0.06735,0.255125
1.0053,0.075475,0.25945
1.0601,0.08465,0.233875
1.057225,0.083525,0.222725
1.073825,0.001275,0.17785
1.19295,-0.09185,0.179375
1.3193,-0.084225,0.2331
1.425225,0.019425,0.197275
1.472575,0.1385,-0.121525
1.314925,0.2299,-0.281125
1.173325,0.285875,-0.268425
1.007,0.364275,-0.137925
0.903575,0.370875,0.069025
0.88745,0.335375,0.144775
0.936675,0.246075,0.143275
0.9814,0.1584,0.131575
1.0059,0.103525,0.0203
0.981375,0.067275,-0.067425
0.889775,0.0683,-0.046475
0.806975,0.080725,0.014775
0.779575,0.100625,0.0593
0.808475,0.130475,0.09645
0.8775,0.142975,0.1443
0.957025,0.13295,0.089925
1.020925,0.11445,0.003475
1.026,0.1075,0.009925
0.9971667,0.1272667,0.0451667
0.94022,0.15432,0.1121
0.87205,0.17245,0.178175
0.829475,0.15155,0.17235
0.8131,0.166225,0.11125
0.8298,0.177,-0.0011333
0.84774,0.2087,-0.032
0.842575,0.26735,0.161925
0.84175,0.28885,0.213125
0.883825,0.277725,0.131525
0.9056,0.2410333,0.1205333
0.92145,0.1984,0.107225
0.91236,0.16942,0.09316
0.861875,0.1617,0.114175
0.851525,0.129125,0.18075
0.8573333,0.1209667,0.3323667
0.960975,0.150925,0.347925
1.2846,0.204025,0.24485
1.48585,0.27415,0.02605
1.151925,0.324375,-0.108825
1.31835,0.2655,-0.40255
1.182075,0.2412,-0.327975
0.9076,0.117025,-0.15245
0.9171,0.099425,-0.02385
1.0926,0.12185,0.24415
1.125075,0.1379,0.242725
1.0392,0.12835,0.028875
0.9051,0.0973,-0.002675
0.802825,0.077725,0.045425
0.8214,0.04865,0.1057
0.7614,0.05015,0.13845
0.746125,0.06035,0.10525
0.80495,0.05615,0.092675
0.907025,0.057425,0.0817
0.950275,0.048575,0.085025
0.985475,0.020575,0.1071
1.0014667,0.0122,0.1197
0.98712,0.0497,0.07902
0.940325,0.1061,0.044575
0.899675,0.1347,0.045325
0.840875,0.108525,0.139475
0.75375,0.04515,0.1385
0.656225,0.04095,-0.014875
0.654575,0.0308,-0.1485
0.5846,0.0531,-0.124575
0.588075,0.0859,0.094625
0.719975,0.104425,0.315325
0.8066,0.1139,0.40465
0.879525,0.05995,0.246475
0.949225,-0.0201,0.096325
0.9918,-0.0418333,-0.0385
0.99866,-0.0054,-0.00466
1.106075,0.126125,0.16795
1.219375,0.217175,0.120825
1.4177,0.293,0.10735
1.5206667,0.3489,0.0214667
1.57988,0.44618,-0.10978
1.5657,0.65235,-0.015975
1.468075,0.700075,0.230225
1.258325,0.560275,0.30115
1.1682,0.4571,0.2615
1.10752,0.30416,0.13348
1.0623,0.243075,-0.13215
0.956175,0.1367,-0.172775
0.9110667,0.1174,-0.0245
0.852125,0.129225,0.108175
0.75544,0.1354,0.19068
0.6864,0.13975,0.21605
0.7002,0.1526,0.1942
0.74332,0.17384,0.1854
0.7688667,0.1612667,0.1857
0.75725,0.143425,0.185625
0.767375,0.123725,0.178775
0.79762,0.12246,0.14646
0.8185,0.1563,0.1665
0.813075,0.177075,0.120425
0.8008,0.2487,0.02035
0.75675,0.26375,0.00475
0.678775,0.30195,0.081975
0.673325,0.3082,0.092425
0.6888,0.2794,0.1058
0.6995,0.216075,0.05925
0.704925,0.129425,0.1143
0.731525,0.12735,0.154275
0.70235,0.105925,0.1961
0.747825,0.068275,0.207525
0.8425,0.09135,0.1281
1.005275,0.13645,-0.021775
1.2749,0.26845,-0.225275
1.29535,0.2703,-0.067975
1.2406,0.336775,0.053
1.45915,0.36495,0.135975
1.731575,0.334825,0.211275
1.734675,0.346325,0.14405
1.670275,0.165975,0.1231
1.413375,0.089025,0.00485
1.1658,0.0374,0.0695
1.001375,-0.09215,0.071125
0.8991,-0.0668,-0.077875
0.845475,0.049475,-0.1552
0.8294,0.1218333,-0.0902667
0.81614,0.16308,0.07448
0.81245,0.139625,0.142875
0.76155,0.121125,0.128975
0.75095,0.06525,0.11595
0.781275,0.0383,0.104475
0.8137333,0.0217,0.0211333
0.81228,-0.0008,-0.12484
0.707425,-0.014475,-0.155475
0.58515,-0.0148,0.064725
0.399075,-0.029375,0.23565
0.4777333,-0.0113,0.2804
0.6472,0.026025,0.165625
0.70016,0.07434,0.06726
0.7381,0.116,0.211875
0.8925,0.1075667,0.2692333
0.99575,0.10495,0.2445
1.07428,0.12592,0.07672
1.281375,0.163775,-0.064825
1.49535,0.22445,-0.005575
1.5568667,0.2748667,0.0461667
1.4709,0.3414,0.0941333
1.3866,0.4367833,0.3512167
1.4915,0.485325,0.227825
1.57975,0.456275,0.032975
1.4425,0.3957,0.0046
1.3053333,0.3412333,0.0542
1.1115,0.27462,0.11876
0.950525,0.2054,0.086375
0.8578,0.155725,0.084925
0.7733,0.13145,0.133125
0.7414,0.1142333,0.1465
0.71655,0.0942167,0.1622333
0.7124667,0.1154667,0.1220667
0.652625,0.15785,0.09495
0.616675,0.217425,0.103525
0.6251,0.2279333,0.1304
0.6786,0.2323,0.07492
0.706775,0.217375,0.059075
0.64925,0.21445,0.056325
0.589675,0.22585,0.0821
0.5872333,0.22,0.1613667
0.64226,0.20692,0.1108
0.779675,0.15045,-0.0741
0.739925,0.0842,-0.193325
0.68165,0.088175,-0.059425
0.681425,0.059125,0.150775
0.7411,0.111875,0.243475
0.94925,0.178125,0.16135
1.110675,0.261475,0.155025
1.2949667,0.2468,0.1528
1.42106,0.28278,0.04058
1.6135,0.238075,0.1893
1.90235,0.167725,0.401175
2.04205,0.13125,0.155175
1.86075,0.029275,-0.005825
1.482225,0.0664,0.153625
1.0981,-0.00115,0.194725
0.9508,0.003375,0.103025
0.9575,0.062025,0.0052
0.894125,0.124675,0.032375
0.731575,0.2499,0.068175
0.542425,0.31795,0.110025
0.499775,0.2736,0.083
0.5245,0.2101,-0.003825
0.54225,0.105475,-0.030025
0.4974,0.0581,0.025225
0.500625,-0.006775,0.031675
0.561375,-0.03305,-0.03695
0.63685,-0.046,0.0328
0.6743667,-0.0472,0.1057
0.685325,-0.008625,0.15695
0.6841333,0.0652667,0.2602
0.7021833,0.1001833,0.1353667
0.8462,0.13185,0.027475
0.9858333,0.2019333,0.2193667
1.1351,0.274775,0.498325
1.3441,0.27426,0.131
1.497775,0.329975,0.0469
1.5378667,0.3990333,0.2058333
1.593875,0.512125,0.485175
1.57122,0.54028,0.59032
1.523225,0.563,0.423375
1.5947333,0.5019,0.2884667
1.48095,0.35455,0.21465
1.20095,0.2829,0.145325
1.005175,0.207675,0.167975
0.801525,0.154425,0.253525
0.6591,0.140925,0.268725
0.605825,0.144025,0.247575
0.60895,0.139625,0.26405
0.6173,0.1331333,0.2672
0.5687,0.11118,0.25214
0.50265,0.1205,0.137875
0.4008,0.1582,0.121275
0.496125,0.21155,0.145025
0.565375,0.228675,0.16065
0.571825,0.2589,0.220025
0.653475,0.25775,0.19685
0.7839,0.25775,0.1682
0.769875,0.164125,0.157925
0.698425,0.09435,0.1968
0.7228,0.111275,0.226325
0.82965,0.115625,0.2544
1.028625,0.178725,-0.117725
1.240775,0.160875,0.11845
1.320725,0.189325,0.2235
1.390325,0.14855,0.080475
1.4138,0.1526,0.157275
1.4782,0.208875,0.211225
1.683475,0.196325,0.40205
1.74015,0.1846,0.4611
1.546075,0.160525,0.40335
1.3484,0.13035,0.242575
1.2057,0.0762,0.171075
1.0284,0.005875,0.1752
0.91,-0.0069333,0.1275333
0.77642,0.01714,0.04318
0.63605,0.052425,0.009875
0.63065,0.06795,0.031675
0.6304667,0.0804333,0.1007333
0.68752,0.0794,0.1307
0.711275,0.070875,0.13195
0.738625,0.06265,0.1123
0.744025,0.041725,0.120675
0.6795667,0.0209667,0.1202
0.62152,0.00288,0.21038
0.755225,-0.01815,0.225225
0.862825,-0.014425,0.265975
0.82765,-0.02155,0.3144
0.7921333,-0.0145667,0.3150333
0.782625,0.018025,0.2226
0.8492,0.035625,0.15195
0.95104,0.02104,0.13114
0.984475,0.021625,0.159725
0.9975667,0.0789667,0.2238667
1.0152667,0.1276333,0.2924667
1.1422333,0.2069,0.2126667
1.277575,0.24345,0.0922
1.29055,0.28955,0.09675
1.2848,0.3443333,0.2163
1.2914667,0.3824,0.3643333
1.43945,0.3937667,0.4167167
1.508375,0.371975,0.27905
1.37695,0.3374,0.168125
1.1814333,0.3142,0.1351
1.0844667,0.2687333,0.1136
0.92538,0.2238,0.18024
0.843875,0.191325,0.237575
0.808875,0.17625,0.237525
0.7936,0.132225,0.1772
0.7595,0.1226333,0.1277667
0.69464,0.10998,0.11492
0.62755,0.10875,0.114975
0.61205,0.119725,0.12795
0.589325,0.137375,0.1093
0.6092667,0.1628,0.0650333
0.61,0.19234,0.13594
0.56555,0.251525,0.04465
0.587775,0.2342,0.06955
0.66045,0.177275,0.134225
0.6921,0.154475,0.22325
0.6842,0.1474333,0.3217333
0.71678,0.09696,0.31654
0.78545,0.106975,0.088575
0.8629,0.093325,0.059875
1.00385,0.1614,-0.20035
1.1171,0.19405,-0.191
1.2103167,0.2269,0.11215
1.3176,0.24785,0.469575
1.541725,0.215725,0.550375
1.723075,0.13395,0.535425
2.0058,0.0135,0.1685
1.919825,0.06465,-0.039225
1.626275,0.06405,0.0975
1.3584667,0.0854,0.1134667
1.163225,0.07445,0.13375
1.02674,0.05532,0.1484
0.869325,0.065525,0.150725
0.736175,0.102775,0.062425
0.6672333,0.1178333,0.0563333
0.666725,0.10945,0.05895
0.64722,0.10288,0.07258
0.6626,0.09435,0.114925
0.6408,0.0982,0.110575
0.6041333,0.0692667,0.0710667
0.5225,0.0429,0.06354
0.428775,0.018125,0.089675
0.570975,0.0201,0.108875
0.684575,-0.00235,0.084475
0.7167,-0.0345,0.1088667
0.6991333,-0.0363333,0.1732
0.7808333,0.0327833,0.2196667
0.8834,0.115675,0.1096
0.943925,0.07975,0.131175
1.0125667,0.0756667,0.0968333
1.0359667,0.1206667,0.1742333
1.2006667,0.1419667,0.15665
1.325725,0.255925,0.16875
1.3506,0.343125,0.180475
1.3718,0.3979,0.2322333
1.4552,0.4743,0.3056
1.612,0.4809667,0.3256333
1.59375,0.3853,0.521975
1.3887,0.1137,0.4256667
1.270025,0.11715,0.253125
1.0756,0.02265,0.29885
0.89446,-0.00294,0.3256
0.7858333,-0.0304333,0.2880333
0.725625,-0.012975,0.274475
0.6825,-0.00165,0.35435
0.62865,0.003875,0.3394
0.64595,-0.017425,0.24905
0.632325,0.0575,0.155025
0.686225,-0.0063,0.137775
0.63995,0.0839,0.201175
0.689725,0.1469,0.25205
0.6874,0.2065,0.21075
0.6690667,0.25605,0.1702667
0.67835,0.256275,0.180375
0.7365,0.2438,0.16965
0.73065,0.23025,0.343425
0.837025,0.188775,0.32885
0.9414,0.113,0.24215
0.89,0.087025,0.326125
0.8768,0.086325,0.30185
0.97215,0.060025,0.18035
1.082175,0.043575,0.01385
1.1549,0.084925,0.050375
1.195925,0.1377,0.182125
1.2192,0.13995,0.316025
1.39295,0.015525,0.231275
1.6328,-0.0453333,0.4047333
1.75632,0.00222,0.34664
1.509175,-0.005575,0.2177
1.233525,-0.01945,0.252525
1.10605,-0.0519,0.296825
1.043475,-0.095375,0.222375
0.9527,-0.069325,0.133
0.838675,-0.012175,0.173575
0.727475,0.050775,0.214075
0.6545,0.1032,0.264325
0.7142667,0.0656,0.3448333
0.75954,0.0023,0.27252
0.8413,-0.089775,0.1821
0.782925,-0.112875,0.137625
0.71955,-0.097,0.187625
0.7894,-0.0643333,0.1875333
0.77948,-0.02794,0.18266
0.716475,-0.00675,0.19655
0.639975,0.02115,0.241475
0.6235333,0.0082,0.2432667
0.62655,-0.02655,0.234325
0.67154,-0.04732,0.24084
0.7937,-0.041225,0.217525
0.8953,0.00315,0.19765
0.9609,0.0680667,0.3068333
1.12372,0.10112,0.30006
1.3537,0.1183333,0.2884667
1.52065,0.0917,0.12435
1.42735,0.15155,0.0457
1.2362,0.22158,0.09158
1.1856333,0.2793333,0.2419333
1.36624,0.26258,0.33126
1.4841667,0.2674,0.3803667
1.372675,0.281725,0.331675
1.117775,0.194525,0.27455
0.888275,0.126875,0.183475
0.80275,-0.0162,0.0975
0.78645,-0.06415,0.325
0.83705,0.0,0.33395
0.919325,0.04795,0.3827
0.9517,0.1026,0.19735
0.99,0.1317667,-0.0195333
